r [Rsol]	 vr_mean [km/s]	 vr_stddev [km/s]	 vr_median [km/s]	 vr_q1 [km/s]	 vr_q3 [km/s]	 rho_mean [cm-3]	 rho_stddev [cm-3]	 rho_median [cm-3]	 rho_q1 [cm-3]	 rho_q3 [cm-3]	 T_mean [K]	 T_stddev [K]	 T_median [K]	 T_q1 [K]	 T_q3 [K]
19.35	 285.947	 4.615	 285.851	 282.700	 287.159	 6135.398	 286.302	 6211.850	 5963.176	 6395.785	 74721.414	 6572.700	 75339.320	 71529.840	 76593.012
20.65	 295.715	 7.733	 296.830	 287.439	 302.007	 5532.091	 566.168	 5694.766	 5348.567	 5933.121	 72310.046	 10621.686	 74658.430	 66575.309	 79943.828
20.75	 293.085	 7.599	 292.540	 288.221	 300.674	 5350.633	 485.453	 5420.714	 5028.938	 5579.573	 60316.027	 3731.764	 59944.051	 57973.672	 64122.125
23.35	 273.562	 1.717	 272.925	 272.178	 274.521	 3667.454	 82.924	 3633.854	 3610.903	 3701.228	 50632.857	 1197.058	 50553.062	 49929.064	 51387.670
23.45	 275.115	 2.475	 274.902	 273.028	 276.422	 3586.866	 282.410	 3534.470	 3383.091	 3722.939	 51499.030	 2950.047	 51159.775	 50118.389	 52611.019
23.55	 279.943	 6.268	 276.902	 275.424	 285.932	 3537.941	 208.829	 3480.958	 3450.730	 3578.025	 51098.542	 4719.069	 51196.234	 48245.379	 51557.107
23.65	 286.017	 17.352	 277.998	 274.230	 289.786	 3585.199	 414.789	 3619.896	 3405.968	 3799.126	 51918.539	 13065.496	 49387.512	 44089.568	 57216.482
23.75	 297.075	 35.025	 290.789	 282.888	 301.569	 3953.665	 651.786	 3991.645	 3867.744	 4130.870	 64122.273	 74961.028	 52219.117	 50509.643	 55006.957
23.85	 286.395	 5.925	 285.303	 282.650	 289.370	 3398.696	 181.405	 3324.497	 3303.011	 3514.136	 52695.934	 3781.989	 52505.906	 50586.297	 54488.589
23.95	 221.599	 0.708	 221.599	 221.245	 221.953	 2689.534	 202.409	 2689.534	 2588.330	 2790.739	 106084.539	 2436.602	 106084.539	 104866.238	 107302.840
24.05	 227.702	 3.912	 227.286	 224.245	 231.673	 3125.111	 361.530	 3045.494	 2974.170	 3339.916	 95526.574	 10897.949	 94869.367	 87613.801	 100413.383
25.05	 250.498	 2.245	 250.755	 249.192	 251.932	 2123.738	 58.034	 2157.854	 2099.944	 2164.589	 91668.786	 1406.568	 91863.688	 90860.312	 92574.711
25.15	 237.628	 12.378	 231.198	 229.761	 247.508	 2098.867	 334.914	 2149.632	 1842.468	 2196.445	 118284.081	 7184.984	 117532.410	 115060.027	 119425.342
25.25	 419.691	 78.660	 419.691	 380.361	 459.021	 290.010	 39.474	 290.010	 270.273	 309.746	 454289.688	 15970.594	 454289.688	 446304.391	 462274.984
25.35	 342.686	 6.527	 342.580	 338.493	 346.992	 272.660	 43.447	 260.620	 237.218	 296.316	 312111.937	 41522.414	 308685.906	 279975.961	 345149.086
25.45	 335.565	 11.061	 335.550	 330.512	 341.776	 237.665	 214.797	 218.458	 209.492	 229.399	 228883.738	 35863.645	 223388.062	 201793.656	 253177.656
25.55	 341.674	 8.740	 341.474	 334.792	 347.878	 212.604	 14.879	 211.992	 202.262	 222.405	 216633.865	 30945.557	 210979.141	 192138.906	 237855.906
25.65	 355.496	 12.894	 356.331	 345.498	 364.125	 234.889	 26.151	 230.973	 217.427	 247.299	 255551.908	 48955.503	 246247.188	 221004.074	 277318.992
25.75	 360.080	 18.029	 356.855	 349.933	 366.373	 239.667	 113.505	 230.898	 219.347	 244.936	 295872.550	 121931.148	 264050.312	 234169.461	 311635.398
25.85	 336.595	 33.924	 350.006	 302.779	 358.771	 509.728	 436.322	 233.844	 215.071	 1023.296	 219746.763	 93482.474	 223894.953	 122480.582	 268807.609
25.95	 336.621	 49.313	 350.237	 294.087	 359.210	 606.266	 496.787	 232.277	 216.067	 1131.951	 226129.310	 143280.044	 213729.086	 106830.453	 256083.699
26.05	 363.947	 10.814	 360.921	 355.559	 370.420	 220.093	 17.546	 217.159	 209.517	 226.561	 266224.035	 50390.407	 251273.109	 231249.133	 290632.078
26.15	 372.930	 12.316	 370.728	 363.848	 379.489	 237.196	 33.624	 228.952	 215.497	 248.418	 280362.156	 55576.096	 269857.250	 245968.297	 298056.836
26.25	 371.111	 15.521	 368.750	 358.619	 380.251	 238.929	 38.304	 227.255	 213.701	 250.932	 286311.750	 64844.744	 270366.984	 238987.480	 314947.578
26.35	 375.845	 19.066	 375.140	 359.940	 386.824	 230.150	 38.324	 218.005	 205.404	 241.093	 323060.176	 91571.544	 303276.656	 257796.914	 360780.594
26.45	 377.244	 17.861	 374.114	 366.551	 384.097	 208.859	 30.731	 200.635	 189.734	 218.451	 349011.290	 125363.101	 317004.344	 275442.727	 374194.305
26.55	 384.803	 27.478	 380.292	 366.886	 399.486	 240.167	 208.493	 202.398	 191.716	 228.615	 412149.771	 151864.617	 380955.969	 302439.422	 479935.984
26.65	 378.665	 10.216	 377.990	 372.803	 383.112	 199.812	 60.607	 195.799	 185.240	 205.570	 314948.184	 60538.408	 303303.781	 278663.586	 341636.117
26.75	 386.673	 18.022	 381.616	 372.425	 396.573	 200.922	 30.503	 192.747	 181.618	 211.138	 361542.978	 119336.129	 320639.562	 277358.633	 408657.328
26.85	 389.398	 17.341	 389.074	 378.080	 399.104	 217.140	 42.013	 206.240	 187.404	 235.239	 378873.635	 106169.876	 359905.594	 310846.578	 424013.664
26.95	 363.634	 38.629	 371.899	 315.385	 386.895	 263.214	 96.152	 215.839	 191.774	 352.289	 308107.794	 132591.020	 281483.234	 205461.773	 357141.453
27.05	 390.832	 42.193	 401.884	 390.540	 412.856	 258.126	 142.398	 213.431	 193.593	 260.236	 348583.320	 107528.885	 343084.609	 291490.492	 406666.133
27.15	 373.657	 53.388	 394.537	 342.541	 406.988	 251.827	 103.589	 201.554	 184.477	 294.899	 366859.189	 151986.865	 355227.188	 260133.980	 442927.273
27.25	 385.531	 29.612	 383.509	 373.715	 399.073	 249.160	 80.952	 269.052	 166.188	 309.604	 337085.201	 106607.609	 303705.031	 250164.609	 414342.344
27.35	 403.505	 36.569	 395.822	 384.525	 419.468	 258.487	 110.895	 188.473	 160.045	 344.197	 377673.871	 150821.642	 332070.641	 239329.172	 509628.766
27.45	 435.760	 37.923	 430.987	 410.654	 458.158	 282.876	 115.906	 247.818	 169.553	 385.093	 417667.891	 117599.122	 423170.156	 334036.609	 473868.453
27.55	 401.755	 18.263	 397.176	 390.023	 410.600	 168.732	 38.733	 161.592	 153.265	 172.264	 291542.703	 80607.526	 278244.594	 232518.672	 332067.906
27.65	 346.721	 83.807	 389.224	 247.710	 410.056	 283.418	 141.486	 185.062	 153.782	 433.088	 268842.751	 175701.679	 223188.562	 143430.953	 308448.312
27.75	 328.839	 73.572	 304.692	 253.250	 401.720	 323.077	 144.070	 383.265	 159.093	 438.825	 233040.670	 130408.475	 197307.688	 147718.859	 263816.391
27.85	 340.335	 66.204	 325.698	 263.014	 402.222	 292.778	 122.414	 337.065	 158.387	 379.130	 238694.832	 124683.041	 217193.625	 139846.617	 271319.359
27.95	 342.277	 65.885	 323.094	 267.806	 401.224	 298.407	 126.359	 324.973	 155.438	 391.821	 242391.053	 132287.968	 218520.648	 158692.809	 251184.812
28.05	 369.646	 67.627	 399.455	 325.342	 413.976	 256.978	 144.912	 166.047	 145.287	 354.792	 294990.840	 174729.390	 251815.781	 219599.809	 319786.664
28.15	 405.841	 51.901	 416.795	 341.391	 441.934	 250.479	 162.409	 161.982	 147.398	 375.995	 403763.120	 208669.017	 343739.719	 237820.906	 490498.375
28.25	 402.438	 38.877	 407.130	 400.325	 422.866	 208.010	 129.908	 147.356	 139.339	 171.696	 307461.903	 110770.298	 277236.312	 235735.016	 347716.688
28.35	 419.265	 48.064	 413.857	 407.868	 434.204	 181.208	 114.737	 143.249	 135.520	 156.822	 373229.248	 277700.176	 255645.531	 204682.609	 412104.094
28.45	 379.057	 76.131	 422.134	 284.195	 435.557	 214.423	 99.567	 146.169	 135.435	 330.715	 282630.907	 163276.746	 236062.914	 173868.984	 313480.734
28.55	 369.551	 76.416	 415.423	 280.370	 434.940	 223.653	 95.847	 161.358	 138.155	 303.731	 236846.234	 112186.906	 226809.609	 136379.562	 291992.125
28.65	 361.269	 73.485	 343.365	 288.319	 436.909	 249.480	 114.780	 275.267	 136.160	 293.332	 242494.691	 135207.703	 229831.469	 131559.734	 297988.844
28.75	 373.484	 72.216	 374.820	 292.044	 438.177	 290.169	 120.791	 274.428	 157.080	 396.390	 317336.878	 197644.127	 297272.469	 132363.371	 423530.500
28.85	 363.162	 70.440	 343.061	 289.717	 432.476	 288.092	 117.274	 282.995	 151.536	 396.255	 279390.630	 167931.745	 258939.828	 130880.688	 350851.219
28.95	 368.903	 79.577	 338.640	 293.067	 449.739	 275.729	 113.278	 259.997	 156.066	 377.578	 297884.612	 203163.591	 241476.398	 132979.977	 378965.570
29.05	 377.682	 71.533	 352.787	 320.194	 445.217	 276.514	 122.370	 314.184	 132.639	 373.620	 330793.054	 186759.043	 275473.344	 199836.609	 410626.070
29.15	 381.234	 66.198	 372.026	 318.853	 442.602	 258.674	 133.935	 241.980	 130.742	 383.727	 322922.601	 162110.218	 298639.750	 168556.367	 423103.109
29.25	 376.430	 58.611	 384.168	 306.880	 422.467	 270.430	 138.474	 258.688	 128.049	 395.138	 305858.578	 122606.737	 309062.516	 179422.652	 392331.117
29.35	 365.046	 50.615	 363.511	 307.910	 411.839	 287.990	 145.832	 257.254	 126.879	 430.858	 289704.814	 120597.871	 275591.406	 175771.254	 368965.875
29.45	 406.253	 50.054	 424.717	 411.503	 436.334	 173.029	 112.424	 125.204	 121.026	 139.458	 292992.955	 91926.405	 283492.734	 243231.172	 335823.375
29.55	 412.849	 28.713	 417.857	 405.040	 425.833	 142.000	 88.455	 123.860	 120.075	 128.260	 282166.900	 64562.770	 273603.531	 245740.770	 304536.750
29.65	 398.077	 53.654	 414.553	 396.448	 431.816	 211.484	 159.741	 124.620	 119.013	 149.117	 292052.953	 83970.464	 272510.547	 235783.898	 326053.367
29.75	 390.621	 53.154	 404.661	 331.665	 424.195	 237.485	 171.893	 123.820	 115.269	 453.804	 375685.562	 174365.398	 327311.469	 274689.812	 411898.891
29.85	 393.125	 41.314	 403.818	 357.193	 420.174	 249.311	 162.536	 123.843	 111.671	 433.870	 404834.282	 151310.241	 376195.672	 294506.414	 477274.352
29.95	 406.320	 54.441	 415.824	 371.337	 436.215	 220.553	 153.969	 119.223	 112.308	 415.496	 409217.995	 179500.893	 365119.984	 295201.172	 474245.977
30.05	 409.590	 54.395	 417.353	 379.296	 436.656	 213.900	 156.871	 118.630	 113.070	 411.661	 379075.941	 163191.507	 331669.047	 267382.711	 454716.195
30.15	 409.325	 61.286	 428.147	 378.416	 448.090	 210.211	 161.225	 119.007	 112.277	 364.865	 370259.787	 129859.317	 350295.250	 284835.227	 435520.836
30.25	 418.772	 54.516	 428.878	 378.254	 458.660	 216.753	 137.668	 119.795	 112.194	 377.055	 405269.303	 121953.181	 395340.906	 316356.875	 480173.344
30.35	 437.139	 53.516	 447.678	 421.516	 472.306	 161.377	 106.020	 116.244	 111.964	 123.243	 378430.733	 114468.105	 361076.641	 295720.742	 435579.633
30.45	 415.834	 48.612	 424.437	 395.957	 442.804	 187.828	 123.159	 115.738	 108.552	 347.611	 354978.320	 115706.805	 331110.172	 270136.758	 419330.680
30.55	 405.244	 54.499	 416.903	 360.389	 439.916	 209.091	 133.095	 117.608	 108.797	 368.967	 341040.913	 124713.861	 320547.984	 252032.324	 405399.633
30.65	 472.870	 62.966	 487.388	 453.115	 514.521	 169.205	 119.059	 122.747	 116.548	 132.660	 529096.170	 189105.149	 500573.469	 417281.172	 600560.531
30.75	 458.165	 74.405	 482.028	 427.459	 504.918	 165.205	 135.540	 116.248	 110.627	 123.409	 430358.773	 192364.934	 430850.750	 284500.031	 514003.844
30.85	 354.259	 49.083	 348.773	 310.334	 398.874	 260.215	 277.470	 218.746	 123.138	 297.925	 272872.386	 68489.274	 265133.594	 242096.203	 294449.281
30.95	 357.743	 46.157	 372.328	 314.734	 395.080	 232.615	 276.539	 227.301	 124.027	 257.174	 268831.131	 99124.592	 249877.398	 194529.473	 312598.297
31.05	 402.298	 56.015	 409.972	 351.777	 439.869	 169.936	 63.498	 139.756	 131.798	 221.833	 376594.883	 155366.885	 353107.344	 257723.617	 462101.141
31.15	 395.982	 61.539	 402.057	 329.417	 442.326	 331.219	 564.726	 141.121	 130.855	 223.842	 374834.711	 195178.527	 348433.219	 228019.469	 500474.594
31.25	 406.276	 61.790	 408.620	 370.256	 451.765	 191.147	 154.579	 150.196	 142.059	 176.785	 431438.887	 184546.437	 407674.484	 280187.188	 555439.953
31.35	 350.540	 40.756	 360.975	 309.983	 378.156	 213.951	 95.476	 176.411	 146.917	 252.612	 289710.294	 95129.234	 276178.906	 211278.859	 336731.281
31.45	 391.957	 67.831	 373.594	 353.547	 398.555	 208.190	 92.419	 188.897	 145.902	 241.374	 357892.220	 100137.263	 345188.250	 280770.156	 426289.219
31.55	 344.376	 28.386	 339.456	 321.469	 363.081	 210.659	 103.880	 205.674	 156.237	 217.687	 286940.822	 122723.545	 241116.688	 193940.688	 352518.062
31.65	 344.484	 31.656	 343.789	 315.655	 368.949	 253.969	 143.873	 217.314	 169.091	 233.381	 298358.935	 151562.110	 233131.805	 174295.363	 411793.688
31.75	 343.754	 44.543	 320.448	 313.428	 367.099	 231.457	 117.686	 211.748	 175.677	 221.459	 289180.810	 189785.865	 179073.703	 161457.863	 399449.406
31.85	 311.302	 21.130	 308.562	 301.468	 319.341	 260.083	 70.844	 238.904	 222.293	 271.289	 218652.745	 61189.420	 214266.688	 170867.691	 247905.613
31.95	 304.760	 15.184	 304.110	 297.152	 313.640	 280.853	 104.495	 239.947	 219.251	 312.415	 210014.543	 60149.868	 199616.234	 162975.906	 239104.336
32.05	 308.240	 26.200	 309.423	 290.118	 324.049	 298.252	 123.509	 263.794	 222.206	 318.297	 196515.218	 41468.666	 189075.734	 170644.863	 212199.930
32.150000000000006	 302.241	 44.720	 307.943	 263.050	 325.507	 312.179	 140.472	 296.102	 206.723	 348.337	 198137.571	 106012.438	 165515.867	 150700.824	 184106.996
32.25	 335.530	 70.898	 332.900	 258.513	 394.673	 352.065	 151.166	 369.739	 205.293	 424.936	 282446.250	 170161.808	 171267.125	 149163.328	 447406.094
32.349999999999994	 302.763	 29.438	 306.181	 275.457	 320.358	 297.361	 114.441	 273.741	 204.470	 356.795	 198906.979	 66689.886	 175588.141	 156886.332	 209648.488
32.45	 297.577	 41.432	 302.232	 258.298	 321.094	 282.055	 78.646	 242.033	 219.033	 341.575	 208156.656	 81871.809	 181268.578	 158116.102	 224129.648
32.55	 327.562	 24.106	 321.766	 312.431	 338.891	 221.237	 64.384	 213.750	 202.395	 226.010	 234792.752	 65906.692	 229296.148	 186463.953	 266102.305
32.650000000000006	 357.915	 58.384	 330.144	 313.770	 394.129	 210.043	 112.217	 203.714	 169.429	 215.490	 252560.124	 77547.910	 254290.656	 187071.078	 305312.266
32.75	 336.959	 59.233	 318.901	 305.596	 349.979	 306.653	 316.684	 202.156	 190.729	 263.220	 225956.677	 81301.104	 204450.062	 167463.234	 265184.781
32.849999999999994	 300.013	 29.941	 313.660	 270.344	 323.913	 260.231	 114.888	 247.439	 196.450	 306.719	 210838.569	 50012.496	 199195.047	 179350.609	 227545.641
32.95	 302.622	 27.997	 307.410	 280.600	 321.865	 284.297	 204.523	 238.211	 211.256	 281.906	 220113.361	 55785.670	 213234.484	 180366.570	 250346.234
33.05	 314.385	 52.467	 306.140	 276.847	 324.081	 281.656	 197.772	 229.862	 213.522	 283.728	 238134.058	 115280.566	 193103.398	 162481.781	 269212.492
33.150000000000006	 322.044	 47.126	 312.263	 288.337	 334.801	 221.284	 52.727	 213.355	 202.530	 230.750	 234117.541	 108659.545	 184558.852	 161454.387	 274114.156
33.25	 307.667	 26.721	 306.116	 291.353	 315.192	 254.549	 178.041	 215.463	 201.574	 236.179	 193387.450	 57442.657	 180003.211	 154417.758	 214867.172
33.349999999999994	 309.954	 33.623	 303.296	 288.006	 321.071	 343.118	 345.297	 222.881	 205.555	 242.305	 213706.562	 81672.635	 187967.734	 160382.707	 236996.211
33.45	 292.705	 19.958	 287.337	 276.149	 308.000	 298.415	 250.471	 241.326	 209.770	 257.266	 164522.919	 27402.666	 158490.250	 146202.953	 176717.590
33.55	 308.854	 31.876	 300.582	 286.793	 318.044	 239.770	 113.560	 225.218	 206.733	 245.154	 199756.543	 54108.041	 185654.859	 162364.965	 223430.930
33.650000000000006	 310.982	 38.368	 301.759	 287.214	 315.555	 246.159	 113.922	 234.521	 210.496	 256.788	 220828.736	 82771.802	 197815.219	 164998.078	 253181.609
33.75	 312.680	 34.685	 306.722	 286.358	 327.881	 287.974	 251.571	 216.023	 195.518	 245.971	 202276.328	 53327.035	 191251.250	 163169.109	 230514.523
33.849999999999994	 304.650	 25.941	 298.589	 286.301	 322.091	 234.377	 140.703	 207.395	 183.412	 230.796	 193315.310	 37889.739	 187586.812	 167345.469	 214665.609
33.95	 292.182	 14.557	 290.768	 283.143	 299.361	 219.033	 40.303	 210.701	 200.487	 221.361	 180506.559	 33586.445	 174544.016	 159216.117	 193426.328
34.05	 311.537	 20.144	 312.212	 299.690	 323.741	 198.722	 67.714	 188.043	 175.665	 201.420	 206626.092	 24233.245	 205253.906	 191338.578	 221171.984
34.150000000000006	 289.218	 28.988	 280.093	 261.254	 318.500	 254.242	 89.375	 277.260	 179.860	 313.197	 178068.679	 40804.528	 172049.336	 144973.766	 206217.934
34.25	 289.456	 30.109	 278.130	 267.621	 307.328	 328.273	 201.497	 299.920	 254.760	 323.977	 162504.768	 47916.919	 150545.906	 133115.344	 170703.547
34.349999999999994	 280.419	 20.621	 273.514	 267.053	 285.837	 314.610	 106.218	 308.141	 293.718	 321.223	 166062.840	 71390.692	 140711.875	 129552.762	 157707.434
34.45	 334.764	 41.303	 333.625	 298.761	 357.581	 228.067	 122.743	 194.450	 174.203	 263.645	 319024.167	 161637.950	 268789.594	 195031.031	 403452.312
34.55	 357.321	 31.631	 349.288	 336.122	 368.234	 200.569	 135.909	 169.505	 158.801	 189.585	 331438.592	 127953.921	 303070.406	 248357.203	 374793.219
34.650000000000006	 350.764	 39.141	 344.917	 333.171	 364.382	 205.788	 63.324	 183.320	 164.318	 223.596	 274681.519	 64288.535	 265471.500	 226605.883	 318113.516
34.75	 340.158	 21.041	 342.643	 328.729	 354.957	 213.072	 152.451	 167.041	 151.480	 257.885	 284807.246	 57692.848	 287259.453	 246371.887	 322401.641
34.849999999999994	 341.838	 18.238	 338.136	 330.783	 353.077	 178.043	 60.758	 153.116	 144.592	 189.617	 271120.891	 68921.152	 259815.594	 215803.965	 319316.750
34.95	 336.371	 19.955	 332.704	 324.489	 343.178	 167.351	 67.859	 153.253	 142.885	 168.856	 287297.306	 84947.545	 268326.281	 231386.734	 322417.820
35.05	 329.631	 27.048	 328.160	 310.917	 348.657	 175.111	 148.427	 133.368	 108.449	 221.120	 263925.248	 102584.182	 236465.594	 199465.531	 290567.438
35.150000000000006	 343.026	 31.605	 360.261	 313.693	 368.744	 158.052	 76.088	 102.049	 94.666	 242.447	 244798.468	 51945.234	 235326.719	 211476.875	 268957.219
35.25	 347.068	 38.797	 360.622	 310.629	 377.914	 160.544	 94.443	 101.216	 95.786	 250.463	 240452.003	 64978.726	 221500.641	 200473.523	 261415.855
35.349999999999994	 342.048	 38.797	 354.169	 304.654	 373.314	 204.601	 77.481	 227.454	 122.639	 265.346	 258104.947	 68575.339	 247882.250	 211388.781	 289540.375
35.45	 348.765	 32.225	 355.712	 324.523	 372.885	 311.274	 141.623	 283.936	 261.807	 308.842	 276302.692	 97609.835	 274944.406	 174036.312	 348546.406
35.55	 328.869	 48.760	 317.266	 283.907	 377.883	 307.154	 125.215	 271.187	 250.746	 300.888	 308074.237	 98130.646	 317804.734	 217000.238	 384261.820
35.650000000000006	 282.042	 31.966	 278.812	 260.604	 290.054	 352.058	 77.797	 321.607	 291.074	 411.496	 234528.461	 75649.952	 216545.578	 193465.738	 248217.895
35.75	 307.029	 35.323	 300.532	 287.546	 327.238	 266.196	 97.668	 235.976	 208.414	 269.633	 262443.665	 77243.924	 242519.859	 219544.203	 279748.094
35.849999999999994	 311.044	 26.277	 316.300	 304.172	 326.912	 256.768	 140.793	 196.518	 180.711	 256.207	 269072.793	 58644.936	 256953.664	 232955.801	 294459.852
35.95	 321.253	 29.555	 319.868	 310.623	 338.370	 219.827	 89.483	 192.762	 170.990	 224.383	 285194.070	 77791.991	 264311.391	 228040.156	 331484.188
36.05	 323.205	 39.416	 322.160	 311.573	 343.906	 225.469	 118.685	 182.511	 167.672	 208.509	 292741.796	 106887.198	 268554.500	 224075.531	 339546.500
36.150000000000006	 342.195	 59.339	 339.770	 309.947	 371.371	 223.774	 98.312	 183.277	 164.217	 226.108	 346807.434	 139788.479	 321585.375	 243263.273	 436628.062
36.25	 321.518	 32.828	 321.096	 303.690	 341.040	 277.995	 127.122	 310.033	 160.389	 356.663	 300147.937	 98669.182	 286242.562	 230942.879	 345604.000
36.349999999999994	 317.099	 39.828	 325.375	 298.860	 346.837	 283.958	 148.733	 261.909	 159.047	 343.197	 310775.959	 103498.478	 304165.844	 230153.312	 385762.047
36.45	 346.860	 52.576	 344.839	 322.052	 380.446	 249.225	 210.225	 190.583	 141.880	 235.882	 376375.312	 181287.034	 321993.203	 239949.625	 516000.016
36.55	 330.122	 38.335	 335.094	 314.321	 352.204	 245.630	 157.424	 201.951	 137.360	 310.806	 318563.594	 134477.485	 272305.844	 233311.828	 385470.969
36.650000000000006	 366.906	 38.072	 369.379	 347.605	 387.767	 204.821	 221.032	 122.905	 114.447	 198.824	 351310.823	 153694.995	 317899.797	 261579.129	 429821.672
36.75	 347.780	 39.997	 351.901	 306.512	 377.994	 419.607	 371.922	 247.257	 132.175	 840.171	 287215.606	 157085.975	 326972.031	 119755.781	 398560.922
36.849999999999994	 339.172	 38.877	 351.915	 304.635	 371.474	 437.075	 270.647	 269.498	 233.903	 766.120	 274501.360	 168946.712	 337071.719	 74248.531	 420091.516
36.95	 342.971	 42.567	 325.720	 309.644	 386.295	 607.235	 418.347	 287.014	 245.690	 941.568	 265625.365	 209357.468	 214093.828	 53975.789	 475910.719
37.05	 344.667	 37.206	 359.166	 316.057	 371.203	 436.286	 325.761	 252.592	 238.710	 749.890	 309164.980	 160525.889	 376702.938	 106732.736	 433804.094
37.150000000000006	 327.743	 32.945	 335.018	 290.700	 350.946	 448.178	 328.637	 279.741	 257.254	 769.392	 303903.316	 144076.460	 345824.828	 111276.982	 409302.852
37.25	 334.842	 22.633	 336.588	 320.724	 350.229	 254.755	 52.282	 251.383	 230.385	 281.993	 355624.169	 70603.067	 357768.625	 319198.031	 398159.898
37.349999999999994	 333.718	 22.000	 332.111	 323.491	 344.417	 244.493	 62.040	 238.662	 219.137	 264.991	 377942.195	 91066.290	 375754.141	 325832.617	 438619.461
37.45	 308.003	 44.062	 309.660	 268.688	 350.545	 405.542	 237.949	 256.727	 214.426	 697.596	 265442.784	 179165.438	 246957.156	 58870.053	 434996.938
37.55	 314.353	 47.677	 300.799	 286.091	 359.997	 420.098	 212.450	 282.243	 225.338	 647.490	 258003.837	 186139.564	 211355.828	 54592.619	 441640.828
37.650000000000006	 309.147	 45.652	 298.237	 286.573	 346.744	 437.281	 231.801	 414.384	 218.927	 700.445	 238437.451	 182999.487	 188517.156	 58720.090	 387837.031
37.75	 309.221	 32.146	 305.144	 295.445	 324.676	 442.787	 268.168	 282.683	 207.062	 719.727	 216128.933	 145497.212	 210222.766	 57882.845	 330928.633
37.849999999999994	 299.253	 22.394	 300.246	 289.995	 312.720	 412.152	 240.207	 276.904	 213.010	 732.621	 196202.868	 109384.567	 197826.156	 73557.689	 266133.656
37.95	 330.869	 42.193	 325.405	 302.749	 352.968	 407.437	 276.064	 225.434	 198.381	 715.127	 271155.487	 164016.775	 279265.531	 88384.852	 407399.562
38.05	 351.692	 51.860	 338.258	 312.206	 385.103	 383.125	 278.902	 230.719	 185.375	 722.356	 329127.084	 185766.983	 357115.141	 99755.865	 473019.570
38.150000000000006	 347.500	 57.568	 353.629	 286.991	 386.660	 328.506	 233.597	 205.690	 190.820	 356.330	 343249.233	 171215.870	 405250.156	 168091.453	 472929.906
38.25	 389.622	 77.899	 401.113	 306.453	 461.029	 329.693	 250.829	 185.665	 171.146	 388.311	 384847.419	 189512.699	 436975.469	 269494.992	 511658.633
38.349999999999994	 340.530	 35.285	 350.015	 315.806	 365.452	 353.134	 226.604	 305.403	 179.502	 361.676	 255974.978	 94684.943	 262487.875	 206813.699	 313564.352
38.45	 347.914	 38.638	 351.613	 330.268	 374.353	 327.418	 244.395	 198.858	 157.046	 325.747	 252234.380	 103086.867	 264243.344	 191040.086	 327839.234
38.55	 343.102	 30.829	 339.156	 334.029	 352.717	 268.910	 224.040	 172.910	 148.990	 276.447	 236972.075	 89000.992	 214050.031	 186775.688	 295831.656
38.650000000000006	 332.370	 20.505	 340.104	 325.118	 345.218	 285.976	 259.344	 172.414	 154.943	 209.930	 239123.460	 86387.793	 230175.703	 200416.770	 295489.133
38.75	 328.528	 21.440	 336.124	 317.249	 344.887	 313.147	 275.115	 191.937	 161.978	 221.624	 254178.028	 97460.492	 249334.789	 211156.766	 318229.438
38.849999999999994	 335.423	 15.488	 340.419	 327.580	 346.641	 278.437	 238.844	 165.555	 159.184	 203.960	 234820.483	 88198.728	 232441.133	 190162.949	 269316.141
38.95	 336.127	 15.656	 338.141	 330.380	 346.274	 205.580	 164.442	 166.532	 159.786	 173.043	 239380.185	 54189.444	 243128.523	 213705.770	 271514.812
39.05	 340.377	 16.446	 341.887	 334.808	 350.260	 222.351	 210.490	 160.050	 144.790	 169.973	 245898.474	 68677.728	 250328.031	 208780.023	 287747.734
39.150000000000006	 341.211	 21.193	 346.155	 324.833	 356.412	 230.084	 209.441	 158.318	 148.936	 184.532	 240851.820	 61735.475	 243898.312	 206961.008	 280919.820
39.25	 344.940	 22.877	 357.187	 324.266	 363.408	 178.564	 80.147	 161.219	 154.856	 185.143	 252145.267	 39811.082	 252737.828	 232611.461	 274435.000
39.349999999999994	 361.061	 31.478	 364.106	 333.838	 385.580	 184.095	 109.023	 168.094	 161.106	 175.804	 310159.039	 95382.266	 289983.891	 238142.070	 388101.367
39.45	 348.541	 24.996	 344.929	 334.378	 370.158	 259.489	 245.174	 170.073	 163.103	 180.291	 273933.110	 81597.424	 275583.688	 226640.719	 327261.195
39.55	 347.129	 25.277	 341.990	 333.818	 365.464	 257.366	 227.325	 179.116	 172.642	 186.936	 304343.360	 112138.359	 280171.938	 225980.328	 400999.633
39.650000000000006	 343.135	 27.061	 339.095	 325.617	 362.924	 311.397	 267.837	 193.117	 173.316	 209.969	 290031.791	 118509.520	 274342.781	 228949.652	 364819.742
39.75	 350.683	 34.044	 353.009	 326.031	 378.113	 289.312	 255.292	 189.203	 172.906	 209.903	 321125.129	 128199.536	 302111.672	 240504.199	 417227.391
39.849999999999994	 352.530	 36.411	 348.223	 336.509	 371.082	 192.182	 64.926	 183.514	 167.973	 198.819	 320342.077	 96053.356	 300735.906	 265375.594	 378184.000
39.95	 342.245	 49.445	 346.225	 320.599	 376.449	 284.802	 242.678	 178.114	 168.157	 203.749	 292924.846	 128594.857	 301894.750	 233048.547	 388416.312
40.05	 338.961	 33.767	 326.045	 316.010	 361.390	 276.698	 251.058	 176.287	 160.641	 198.890	 285867.033	 91013.824	 289793.844	 240829.680	 342169.516
40.150000000000006	 338.451	 47.649	 360.282	 292.240	 373.064	 248.759	 157.432	 168.843	 159.775	 314.338	 298455.917	 95817.328	 303462.734	 247168.398	 353401.242
40.25	 338.932	 66.590	 305.854	 281.256	 400.485	 335.973	 198.141	 325.116	 168.000	 444.323	 302707.162	 183462.152	 209347.055	 139370.090	 450720.234
40.349999999999994	 320.846	 57.568	 306.163	 286.509	 370.467	 327.051	 165.153	 261.934	 181.372	 468.029	 296127.974	 188275.302	 187187.094	 136410.344	 478641.125
40.45	 326.400	 33.381	 315.821	 300.882	 356.414	 298.865	 158.740	 198.686	 177.574	 444.802	 280578.800	 145597.399	 256502.469	 138235.117	 415764.875
40.55	 309.513	 63.564	 299.637	 282.445	 356.518	 312.161	 178.254	 275.566	 193.468	 317.958	 282807.733	 202705.313	 213991.102	 107564.400	 457381.789
40.650000000000006	 293.887	 58.411	 295.272	 229.202	 342.969	 273.565	 91.837	 271.444	 201.322	 299.869	 260102.593	 179218.572	 229220.820	 70685.758	 428514.320
40.75	 296.381	 59.307	 296.879	 250.124	 317.361	 292.993	 122.935	 267.418	 230.272	 324.988	 251085.274	 157839.884	 227995.531	 96737.762	 322285.391
40.849999999999994	 280.571	 24.261	 283.669	 256.610	 299.808	 282.744	 105.382	 266.884	 248.749	 282.611	 181640.273	 70598.777	 163940.562	 122195.633	 232480.461
40.95	 292.893	 30.866	 293.335	 267.804	 315.483	 262.798	 88.671	 248.358	 217.448	 281.392	 195256.682	 59681.362	 184297.930	 149508.996	 229421.727
41.05	 303.946	 30.816	 306.467	 291.017	 316.593	 332.437	 164.780	 285.070	 248.687	 322.949	 240349.018	 76539.123	 255219.234	 204215.750	 291729.656
41.150000000000006	 321.153	 65.395	 329.746	 263.160	 379.168	 290.569	 184.622	 195.158	 165.244	 350.393	 263637.962	 117520.706	 282098.750	 167209.906	 345350.156
41.25	 305.545	 61.913	 295.971	 248.654	 368.618	 348.253	 220.897	 295.521	 165.299	 429.345	 220200.134	 133135.550	 202289.516	 95256.016	 333403.219
41.349999999999994	 320.104	 43.724	 334.195	 293.208	 348.563	 229.205	 138.163	 179.272	 168.623	 225.309	 258946.865	 107294.133	 282627.000	 216191.422	 330228.594
41.45	 318.219	 47.069	 332.816	 279.226	 345.844	 280.738	 202.298	 183.865	 172.558	 317.969	 218256.582	 94876.658	 228422.664	 152874.570	 284483.539
41.55	 307.298	 42.310	 330.472	 262.191	 340.385	 287.917	 207.016	 188.170	 175.747	 317.980	 189933.800	 95346.588	 201672.656	 105865.195	 261238.633
41.650000000000006	 301.316	 49.633	 296.730	 250.964	 345.016	 367.022	 223.433	 320.589	 172.477	 526.287	 187006.453	 101251.161	 163329.227	 99773.320	 271130.148
41.75	 301.589	 52.342	 285.946	 255.310	 352.296	 355.294	 203.518	 330.858	 168.108	 454.633	 177489.912	 97532.788	 161997.844	 87708.148	 261603.656
41.849999999999994	 308.344	 60.003	 289.280	 254.757	 359.592	 336.686	 195.698	 280.718	 173.715	 437.872	 200613.777	 124518.504	 187872.000	 81503.496	 304602.203
41.95	 312.692	 66.076	 285.444	 252.647	 372.779	 313.884	 170.747	 293.967	 179.200	 390.708	 205445.531	 114034.672	 191579.297	 91146.312	 302138.688
42.05	 300.123	 66.948	 263.453	 245.765	 358.594	 363.060	 199.254	 321.744	 177.853	 544.390	 190178.773	 116398.650	 162382.031	 72166.570	 300175.031
42.150000000000006	 302.623	 65.067	 291.908	 247.889	 356.549	 369.424	 214.221	 306.116	 177.968	 566.775	 194793.718	 112545.548	 143828.328	 101586.551	 304631.148
42.25	 316.860	 61.012	 291.066	 270.393	 364.244	 297.230	 196.258	 201.077	 169.017	 336.360	 214103.871	 130577.208	 143407.867	 109385.582	 339499.641
42.349999999999994	 326.320	 42.921	 309.830	 298.084	 370.370	 245.279	 187.862	 170.450	 161.739	 188.075	 227906.082	 134813.603	 145601.852	 109665.068	 363531.516
42.45	 339.022	 70.253	 316.728	 300.293	 382.067	 204.201	 109.464	 171.208	 160.583	 192.694	 243565.801	 150176.633	 151465.922	 122461.127	 391330.297
42.55	 328.371	 68.274	 305.993	 271.628	 382.317	 209.568	 65.516	 189.949	 173.650	 262.107	 239457.278	 148712.472	 167951.969	 117691.543	 384194.305
42.650000000000006	 323.870	 38.765	 309.270	 297.398	 360.406	 258.330	 115.258	 237.589	 201.469	 267.068	 239503.312	 142781.192	 162832.258	 140901.531	 383840.773
42.75	 333.709	 56.342	 306.806	 297.254	 384.715	 279.437	 150.389	 243.986	 177.836	 294.122	 258726.675	 161839.326	 155846.609	 112586.348	 415606.203
42.849999999999994	 337.443	 67.952	 309.201	 285.396	 397.219	 275.400	 153.180	 240.809	 178.474	 278.181	 237838.013	 176486.992	 110808.469	 88449.043	 402245.109
42.95	 324.696	 63.266	 307.293	 276.162	 395.252	 263.055	 127.448	 239.148	 188.767	 265.966	 205979.497	 151819.209	 120032.422	 83077.094	 353148.281
43.05	 319.659	 68.784	 297.527	 272.750	 376.757	 222.450	 96.390	 197.622	 173.878	 251.273	 211408.779	 150464.732	 125066.219	 102038.459	 344061.844
43.150000000000006	 322.378	 68.396	 287.598	 272.132	 380.169	 256.623	 165.719	 226.664	 168.150	 266.305	 213215.280	 135315.131	 129888.699	 109721.562	 343556.758
43.25	 315.742	 69.457	 290.464	 257.324	 384.836	 244.568	 112.017	 224.299	 163.765	 303.933	 211150.597	 138293.890	 126080.086	 106843.197	 331204.070
43.349999999999994	 324.508	 70.426	 291.122	 279.524	 392.015	 229.621	 81.704	 215.385	 172.511	 252.471	 233710.847	 158734.978	 132657.312	 115475.193	 377823.633
43.45	 310.469	 58.203	 288.147	 272.838	 377.242	 244.069	 88.691	 240.292	 176.283	 267.275	 219869.218	 143913.167	 134852.500	 119379.484	 363800.594
43.55	 322.178	 58.387	 296.241	 290.095	 384.077	 218.089	 57.761	 222.195	 178.784	 234.822	 242688.072	 162761.584	 135047.539	 118138.684	 403681.664
43.650000000000006	 323.740	 63.280	 299.863	 258.202	 397.447	 202.489	 41.082	 215.350	 162.385	 230.175	 216557.897	 162589.669	 116942.172	 94380.615	 369898.844
43.75	 323.209	 62.835	 301.025	 269.822	 392.391	 199.949	 44.775	 210.684	 156.457	 228.420	 205150.618	 148983.525	 110974.258	 96226.648	 340129.250
43.849999999999994	 318.920	 66.198	 283.501	 269.116	 388.028	 206.949	 69.158	 199.857	 150.067	 269.300	 202246.400	 153520.308	 105353.059	 93779.844	 348586.266
43.95	 322.193	 63.727	 285.763	 275.694	 393.193	 183.310	 47.002	 190.356	 136.609	 219.239	 204880.510	 149312.385	 107219.406	 97061.656	 354514.531
44.05	 322.248	 65.127	 289.489	 270.477	 402.254	 181.815	 46.278	 189.140	 137.057	 210.206	 202027.350	 159772.159	 104761.602	 93260.984	 353400.719
44.150000000000006	 333.296	 77.849	 293.426	 279.731	 410.056	 186.188	 101.113	 173.381	 154.864	 187.014	 199862.080	 197541.404	 99827.215	 77668.113	 239760.898
44.25	 330.797	 69.858	 298.549	 284.527	 409.236	 199.956	 123.718	 169.364	 153.416	 182.147	 189832.075	 184288.361	 104826.551	 71151.572	 187406.586
44.349999999999994	 331.810	 75.578	 292.404	 281.792	 409.813	 211.190	 139.112	 174.773	 135.808	 195.100	 184816.787	 176509.015	 107629.391	 74572.801	 174632.098
44.45	 322.993	 74.610	 287.101	 279.955	 307.528	 224.993	 181.068	 176.259	 142.061	 200.335	 136971.642	 121346.083	 103985.516	 66931.422	 138518.633
44.55	 331.650	 68.727	 294.857	 287.294	 398.858	 165.717	 101.437	 161.672	 112.129	 181.014	 156799.379	 145321.655	 116101.016	 45414.312	 169958.270
44.650000000000006	 318.731	 57.643	 292.709	 284.379	 307.179	 153.508	 54.258	 164.269	 139.474	 173.049	 123103.890	 109757.005	 97749.078	 47221.500	 128531.281
44.75	 349.771	 86.826	 309.569	 287.985	 397.262	 144.292	 93.941	 147.386	 84.230	 168.542	 127841.194	 81070.667	 104517.453	 66824.131	 169742.277
44.849999999999994	 337.111	 72.147	 309.614	 279.765	 399.659	 176.893	 127.889	 170.670	 79.713	 193.220	 116974.425	 68194.683	 98908.547	 55136.924	 155944.410
44.95	 326.957	 59.471	 298.763	 283.581	 400.601	 202.921	 159.652	 170.051	 82.921	 188.426	 116060.567	 61746.405	 94188.859	 67720.305	 152133.969
45.05	 345.459	 85.330	 300.972	 280.125	 410.756	 196.933	 176.007	 166.831	 77.099	 191.958	 126876.178	 68770.641	 94522.953	 74874.844	 166001.578
45.150000000000006	 348.175	 85.803	 319.492	 274.428	 417.388	 222.524	 213.184	 145.055	 75.138	 189.027	 114833.112	 63023.214	 90459.820	 68408.902	 158062.180
45.25	 342.230	 73.879	 318.007	 289.261	 420.298	 187.557	 147.227	 156.718	 75.917	 179.702	 106612.219	 58818.302	 77459.789	 66769.945	 137437.594
45.349999999999994	 338.690	 71.428	 327.337	 262.861	 425.698	 173.720	 146.426	 161.411	 73.828	 184.312	 107528.679	 58881.852	 79518.438	 68007.812	 133093.719
45.45	 347.854	 65.913	 328.711	 292.761	 426.574	 204.824	 173.498	 187.610	 69.891	 212.912	 113523.640	 53098.611	 97310.734	 71535.438	 140345.500
45.55	 353.532	 73.474	 311.204	 297.883	 436.823	 184.512	 152.173	 150.220	 65.841	 206.992	 126862.825	 49617.229	 114597.367	 89131.672	 151424.527
45.650000000000006	 343.636	 72.157	 306.747	 288.437	 437.002	 213.033	 167.781	 162.153	 65.825	 260.540	 128637.636	 71308.805	 97352.590	 71587.836	 176592.566
45.75	 382.568	 92.315	 340.086	 321.775	 444.163	 191.634	 154.375	 149.698	 61.186	 235.581	 148302.620	 158704.725	 78347.918	 55357.821	 187404.719
45.849999999999994	 387.128	 93.358	 349.249	 340.388	 483.294	 206.380	 151.455	 200.748	 64.537	 228.504	 175870.588	 202742.495	 63092.879	 37741.151	 290514.023
45.95	 405.975	 89.917	 360.542	 347.883	 497.056	 177.724	 154.183	 158.846	 62.044	 184.216	 175767.362	 183705.513	 74914.945	 45040.156	 254740.344
46.05	 395.621	 54.518	 369.713	 363.249	 444.488	 144.204	 106.835	 145.882	 71.034	 161.931	 117230.251	 104835.387	 53497.605	 41015.461	 179712.055
46.150000000000006	 377.364	 48.430	 370.473	 361.119	 376.188	 207.867	 156.134	 177.010	 159.938	 201.589	 92312.210	 105804.045	 36288.137	 31803.675	 130159.691
46.25	 375.288	 50.932	 374.961	 336.182	 401.263	 187.207	 107.605	 185.865	 154.017	 220.865	 128029.185	 66640.087	 119350.508	 78228.881	 159051.594
46.349999999999994	 370.226	 57.908	 374.788	 318.268	 422.758	 241.210	 192.436	 190.956	 138.466	 230.931	 144191.172	 85104.109	 111713.922	 92051.191	 157991.062
46.45	 349.773	 71.821	 333.332	 286.517	 411.736	 223.429	 210.982	 147.998	 87.203	 198.939	 185928.421	 106556.914	 150456.453	 107548.250	 240163.031
46.55	 355.608	 73.015	 320.716	 302.103	 429.163	 243.457	 236.133	 147.767	 83.038	 253.134	 197619.584	 140752.349	 133256.172	 109737.234	 244404.109
46.650000000000006	 374.608	 81.124	 336.962	 308.388	 446.487	 294.892	 234.933	 134.818	 77.561	 529.840	 231504.938	 134196.614	 209910.742	 111149.492	 309838.867
46.75	 366.669	 91.132	 324.590	 277.633	 446.221	 301.249	 221.700	 398.667	 74.722	 465.721	 201933.091	 113876.569	 157975.039	 119177.268	 250953.883
46.849999999999994	 346.869	 85.199	 318.964	 262.947	 425.788	 359.141	 239.713	 506.881	 81.907	 563.790	 202530.379	 163792.270	 114047.258	 77949.586	 314919.812
46.95	 353.184	 95.241	 314.419	 269.234	 441.258	 348.995	 239.204	 476.403	 79.408	 536.379	 184709.283	 149669.737	 108644.305	 75977.957	 282069.703
47.05	 328.868	 87.804	 291.393	 252.306	 416.827	 404.623	 257.742	 550.584	 79.747	 576.364	 191723.062	 168960.772	 109676.766	 74384.752	 285132.234
47.150000000000006	 327.915	 83.329	 327.864	 244.419	 417.728	 360.722	 252.446	 272.261	 80.688	 614.028	 194798.671	 181260.609	 106401.641	 66535.141	 299540.141
47.25	 326.157	 97.429	 286.266	 244.762	 437.971	 447.407	 279.991	 612.652	 79.260	 665.699	 202758.939	 191174.490	 114093.219	 67121.562	 329587.219
47.349999999999994	 333.403	 97.370	 293.923	 245.682	 444.265	 424.097	 295.146	 633.318	 65.233	 664.191	 163414.836	 113643.445	 131695.500	 69084.982	 242928.172
47.45	 325.965	 97.286	 291.346	 230.952	 443.402	 379.660	 252.718	 530.378	 69.467	 619.670	 151945.285	 114349.858	 129906.168	 55491.527	 209147.988
47.55	 320.837	 90.044	 290.160	 243.541	 436.398	 385.155	 227.414	 502.227	 99.725	 564.379	 163260.401	 152432.729	 117441.504	 55802.711	 174537.188
47.650000000000006	 318.192	 79.733	 282.564	 252.166	 433.651	 364.412	 220.120	 474.829	 71.688	 541.240	 124198.285	 73044.237	 110917.422	 59126.387	 154446.188
47.75	 315.121	 83.599	 279.521	 248.274	 436.744	 384.902	 253.168	 496.095	 68.871	 637.310	 123394.646	 65590.873	 118403.578	 65589.836	 151519.547
47.849999999999994	 281.577	 57.310	 267.427	 236.347	 291.411	 409.364	 229.224	 442.252	 170.087	 627.818	 120029.104	 77858.061	 111028.789	 67811.188	 135663.641
47.95	 289.352	 72.437	 268.182	 235.240	 292.004	 390.300	 253.095	 408.941	 160.711	 667.634	 113906.336	 55666.241	 116452.121	 65347.123	 140684.914
48.05	 331.731	 97.876	 297.351	 244.273	 453.940	 336.477	 264.829	 178.781	 69.153	 654.127	 140160.335	 73545.657	 134515.891	 70924.045	 193873.352
48.150000000000006	 324.816	 97.298	 287.280	 245.621	 436.007	 388.484	 257.437	 433.831	 75.725	 645.308	 141126.689	 89926.042	 130336.223	 67477.547	 171009.426
48.25	 330.858	 98.747	 294.472	 243.028	 448.276	 395.136	 251.836	 509.118	 68.864	 621.192	 131537.503	 82578.850	 124614.961	 60902.912	 180070.574
48.349999999999994	 310.156	 90.588	 277.718	 241.969	 305.101	 395.921	 228.588	 505.586	 163.313	 566.100	 133163.396	 85879.025	 90488.039	 59663.180	 165579.203
48.45	 316.826	 91.552	 280.704	 261.950	 300.352	 366.483	 227.521	 440.113	 147.496	 555.647	 128477.703	 79271.855	 112784.281	 68136.340	 153560.520
48.55	 346.876	 115.932	 288.010	 262.955	 458.847	 332.948	 238.703	 442.832	 66.755	 533.067	 130455.451	 62609.033	 127857.262	 70929.998	 173015.723
48.650000000000006	 346.359	 115.877	 284.784	 245.927	 476.101	 324.328	 208.763	 431.218	 71.456	 478.086	 153536.142	 125913.703	 86509.441	 57549.427	 226167.758
48.75	 333.753	 106.586	 279.938	 250.378	 454.999	 304.653	 195.974	 415.464	 76.814	 468.057	 149324.473	 122299.259	 103029.375	 56812.789	 216168.133
48.849999999999994	 330.327	 102.390	 283.950	 265.037	 435.669	 321.975	 203.903	 394.174	 95.334	 488.136	 163145.694	 144450.765	 91223.164	 53666.311	 223758.875
48.95	 320.126	 95.633	 283.956	 263.207	 330.194	 336.670	 200.540	 427.023	 154.890	 503.896	 171149.442	 153289.334	 85231.652	 54916.151	 240324.109
49.05	 291.487	 70.725	 266.573	 256.688	 275.559	 341.285	 177.492	 421.979	 168.766	 470.034	 152887.641	 173292.530	 85510.574	 57675.952	 136170.957
49.150000000000006	 309.515	 81.358	 271.629	 259.870	 303.648	 306.649	 162.032	 410.862	 161.076	 443.365	 190285.061	 231377.229	 89840.195	 60691.962	 132834.879
49.25	 327.955	 94.462	 276.926	 264.582	 318.543	 276.202	 156.100	 174.514	 146.160	 412.814	 215938.615	 236533.372	 100991.266	 65312.184	 170262.188
49.349999999999994	 312.486	 74.696	 278.663	 261.955	 322.961	 303.933	 189.010	 345.238	 146.257	 416.180	 199831.708	 199939.103	 104368.406	 73491.973	 213110.203
49.45	 326.975	 88.033	 289.000	 263.502	 313.413	 305.235	 181.134	 360.988	 142.630	 415.651	 194033.716	 181706.253	 109731.250	 82158.188	 189120.281
49.55	 328.992	 84.888	 290.071	 265.724	 421.670	 295.887	 173.108	 343.149	 133.597	 395.300	 202469.399	 180712.383	 112352.098	 82509.213	 362293.539
49.650000000000006	 334.716	 92.026	 292.195	 258.475	 457.677	 279.658	 151.800	 345.605	 132.397	 376.465	 210384.946	 173230.178	 127414.613	 81360.801	 375980.109
49.75	 324.389	 77.495	 282.431	 260.836	 419.378	 315.995	 155.733	 362.167	 137.937	 381.326	 195901.670	 158474.953	 106444.289	 82034.000	 344213.656
49.849999999999994	 317.110	 58.216	 297.116	 264.167	 375.108	 299.937	 158.587	 354.075	 149.576	 381.672	 190328.664	 147769.358	 114916.871	 88037.502	 322640.117
49.95	 312.747	 51.580	 297.311	 263.614	 358.248	 335.825	 173.898	 364.342	 147.056	 387.330	 175121.912	 126846.376	 101405.234	 88117.812	 292559.500
50.05	 305.657	 44.250	 296.358	 261.208	 338.544	 325.511	 174.804	 380.627	 161.068	 401.340	 173539.314	 116074.809	 110370.180	 88607.258	 278313.578
50.150000000000006	 324.427	 75.463	 318.576	 270.870	 331.856	 270.991	 171.974	 181.882	 165.939	 375.394	 167943.886	 98996.469	 137893.391	 89606.607	 194218.184
50.25	 304.533	 66.940	 282.885	 269.862	 313.415	 273.324	 153.588	 210.169	 168.454	 344.678	 131983.560	 46611.452	 129762.523	 91776.305	 158615.672
50.349999999999994	 313.684	 72.091	 302.188	 268.192	 318.081	 279.503	 159.232	 233.425	 168.845	 334.008	 141703.398	 68727.392	 128978.121	 86665.861	 172563.078
50.45	 320.019	 80.170	 303.886	 265.695	 326.732	 285.992	 163.141	 297.698	 167.751	 331.967	 148469.528	 82686.741	 117470.078	 90064.633	 178239.680
50.55	 314.739	 66.821	 305.410	 259.807	 359.076	 274.149	 125.670	 302.371	 173.554	 320.882	 167002.751	 97077.110	 122791.668	 94663.576	 253962.391
50.650000000000006	 294.575	 46.023	 270.966	 260.087	 327.350	 305.009	 134.643	 302.817	 197.088	 318.387	 157904.507	 91479.230	 107339.652	 92007.145	 247813.633
50.75	 290.720	 26.311	 297.448	 263.087	 309.014	 273.296	 74.397	 249.860	 225.016	 306.515	 125106.773	 76211.723	 93572.664	 69821.420	 159012.180
50.849999999999994	 292.592	 25.858	 293.297	 266.819	 309.023	 303.100	 152.680	 278.552	 206.566	 305.215	 127562.701	 68169.885	 98920.863	 86281.750	 129960.088
50.95	 286.012	 19.916	 282.630	 270.141	 296.961	 311.851	 150.008	 267.373	 226.763	 307.908	 115037.017	 67351.057	 94112.750	 66325.352	 132773.516
51.05	 289.647	 17.546	 286.373	 274.056	 304.672	 300.750	 180.265	 251.654	 202.205	 286.400	 114531.673	 66322.578	 99030.570	 65674.322	 127443.248
51.150000000000006	 286.061	 21.141	 281.105	 272.015	 290.986	 298.551	 181.657	 244.885	 192.690	 279.493	 110058.403	 60691.232	 95739.781	 61420.803	 138294.266
51.25	 272.563	 23.222	 274.481	 265.947	 283.727	 351.247	 174.607	 263.380	 235.533	 398.531	 110518.553	 57775.637	 107735.984	 65040.981	 152805.531
51.349999999999994	 267.378	 24.904	 271.933	 255.469	 287.122	 374.828	 169.873	 336.775	 244.970	 428.192	 113766.696	 55849.070	 108309.145	 73295.750	 135880.707
51.45	 274.802	 29.670	 273.560	 264.542	 293.150	 364.393	 150.723	 348.684	 247.424	 403.758	 117064.830	 64959.272	 109101.016	 70285.398	 129102.867
51.55	 277.901	 23.724	 274.381	 264.234	 296.741	 313.872	 103.840	 297.846	 238.373	 369.242	 121801.879	 65094.817	 113027.438	 67219.734	 147310.863
51.650000000000006	 277.915	 21.806	 272.304	 263.338	 290.019	 282.864	 136.570	 240.493	 186.013	 319.582	 121759.714	 66090.328	 107619.855	 73500.143	 138268.070
51.75	 277.537	 20.024	 271.894	 264.355	 289.417	 311.841	 156.005	 250.128	 211.771	 339.528	 112022.724	 66773.883	 98327.129	 65236.134	 120633.734
51.849999999999994	 277.395	 16.310	 270.434	 265.607	 289.062	 305.381	 137.043	 253.811	 216.600	 325.866	 112879.110	 61504.259	 109672.750	 57545.980	 136836.094
51.95	 275.711	 15.844	 270.572	 263.710	 284.405	 311.850	 170.694	 253.570	 198.302	 300.570	 105461.439	 49091.017	 110313.266	 55169.115	 133212.070
52.05	 275.148	 20.073	 270.353	 260.997	 283.428	 305.611	 169.613	 246.120	 210.541	 288.992	 105195.220	 43279.671	 104614.391	 65404.543	 128725.586
52.150000000000006	 268.508	 20.401	 265.805	 253.824	 278.605	 305.848	 175.032	 240.373	 210.890	 285.728	 103654.546	 42215.273	 102551.500	 68275.568	 120690.570
52.25	 274.404	 12.409	 270.957	 267.797	 279.571	 296.516	 185.732	 230.766	 203.277	 262.688	 106881.649	 45029.099	 103081.156	 64245.236	 128978.062
52.349999999999994	 277.467	 18.428	 275.794	 267.085	 285.398	 295.644	 178.276	 240.087	 203.250	 275.948	 106894.786	 39916.040	 110465.320	 65894.891	 130666.859
52.45	 274.737	 18.882	 276.080	 267.469	 289.754	 297.527	 153.853	 243.062	 203.423	 321.706	 102589.838	 38827.969	 113324.312	 59815.810	 131877.008
52.55	 278.432	 20.415	 279.078	 262.844	 294.103	 297.650	 148.774	 246.637	 207.856	 299.563	 104558.699	 41901.768	 117688.836	 58430.045	 136243.531
52.650000000000006	 265.041	 22.215	 271.643	 253.845	 282.447	 320.690	 153.955	 240.839	 208.449	 360.587	 107457.813	 38476.925	 118650.070	 70891.008	 136739.734
52.75	 263.926	 27.185	 268.550	 243.448	 287.007	 314.136	 126.710	 245.620	 210.273	 379.260	 110056.543	 47863.710	 122484.395	 58763.040	 151024.414
52.849999999999994	 265.663	 28.477	 267.060	 243.086	 289.467	 314.996	 134.677	 285.754	 197.799	 360.592	 113953.245	 49662.168	 117950.266	 69021.328	 156813.969
52.95	 272.101	 32.210	 273.428	 245.163	 306.461	 296.993	 145.384	 283.285	 174.801	 361.486	 105737.050	 41526.014	 111028.551	 73988.465	 135671.184
53.05	 269.935	 31.435	 268.843	 231.430	 304.928	 281.281	 143.686	 203.182	 173.228	 347.598	 118427.502	 50629.762	 116945.961	 59118.588	 161807.230
53.150000000000006	 273.222	 27.871	 277.188	 259.989	 295.936	 289.104	 142.453	 315.364	 176.086	 340.740	 114545.531	 52699.659	 109815.125	 66973.258	 161321.414
53.25	 264.008	 30.698	 261.172	 233.085	 289.856	 288.968	 136.060	 277.001	 184.382	 347.375	 111988.876	 46535.048	 104347.531	 67140.617	 154022.461
53.349999999999994	 272.541	 38.390	 274.663	 247.048	 296.662	 287.054	 142.766	 276.336	 168.355	 348.579	 113477.990	 52276.896	 111660.086	 70070.664	 151766.367
53.45	 282.265	 45.533	 285.468	 262.153	 302.425	 281.186	 136.215	 276.690	 135.409	 342.697	 102131.459	 51244.497	 87502.555	 67845.195	 132371.844
53.55	 302.759	 81.457	 299.501	 253.354	 305.506	 239.552	 131.141	 256.410	 118.309	 293.445	 121919.731	 64602.288	 99804.594	 73973.078	 150799.031
53.650000000000006	 317.098	 102.903	 291.035	 256.374	 313.865	 220.553	 124.317	 252.484	 116.861	 282.728	 138236.480	 83694.030	 105642.672	 75292.195	 175419.742
53.75	 316.539	 106.469	 277.372	 253.019	 314.315	 218.864	 134.569	 246.809	 116.477	 289.349	 144652.390	 89729.313	 106499.125	 79971.555	 185779.305
53.849999999999994	 282.326	 73.431	 268.915	 253.189	 287.403	 214.898	 87.192	 230.184	 147.858	 289.182	 119625.776	 64077.863	 109497.418	 69077.527	 146260.078
53.95	 273.097	 37.814	 284.328	 230.989	 296.400	 264.124	 127.640	 229.903	 157.405	 343.975	 102921.100	 51074.567	 86365.957	 65534.073	 143229.027
54.05	 273.068	 33.448	 283.182	 230.011	 300.757	 273.632	 131.957	 235.524	 153.474	 329.561	 94221.355	 36849.859	 84529.066	 65050.153	 125731.051
54.150000000000006	 276.543	 33.254	 286.085	 236.328	 303.954	 273.671	 142.861	 221.829	 135.887	 353.016	 100366.617	 38207.233	 87902.961	 73117.100	 131679.453
54.25	 273.403	 32.321	 278.119	 236.033	 299.012	 273.002	 129.468	 225.911	 153.389	 347.269	 104338.184	 43820.971	 85256.375	 73016.805	 145438.844
54.349999999999994	 284.280	 39.499	 301.850	 236.445	 318.575	 264.142	 136.040	 219.449	 135.017	 346.573	 98120.835	 38381.935	 81757.191	 69739.094	 133041.465
54.45	 278.959	 32.843	 277.362	 250.038	 313.676	 259.679	 130.515	 212.125	 158.076	 309.933	 100062.330	 38029.472	 80706.633	 73862.299	 132021.742
54.55	 276.908	 31.177	 279.600	 243.709	 305.737	 257.857	 120.778	 209.017	 164.048	 300.323	 100846.977	 39766.478	 84087.477	 71501.697	 137231.719
54.650000000000006	 278.866	 30.903	 282.446	 246.510	 310.713	 304.896	 116.611	 279.073	 202.688	 340.546	 76872.884	 13953.520	 79706.922	 72036.867	 84501.641
54.75	 279.639	 30.686	 277.490	 251.495	 307.349	 307.290	 119.732	 268.862	 206.424	 340.966	 78380.968	 16387.252	 83299.938	 74540.508	 87548.094
54.849999999999994	 276.145	 29.322	 283.640	 243.780	 304.732	 306.362	 125.246	 269.801	 207.033	 325.313	 81843.103	 12654.449	 81086.012	 73951.781	 88301.412
54.95	 271.215	 25.366	 279.517	 246.701	 295.413	 306.846	 124.151	 259.290	 207.159	 466.029	 85211.049	 9479.259	 84850.449	 79842.879	 90087.287
55.05	 274.180	 25.808	 270.906	 248.741	 298.675	 303.718	 138.404	 237.903	 194.665	 517.253	 84695.221	 9792.830	 85598.594	 77260.973	 91268.262
55.150000000000006	 279.655	 15.507	 281.544	 267.665	 291.282	 300.412	 146.788	 264.600	 179.534	 506.115	 86778.528	 8973.941	 86902.980	 80362.270	 92247.195
55.25	 260.778	 26.093	 252.544	 234.194	 284.753	 315.958	 125.121	 245.016	 229.333	 315.537	 86079.328	 13755.786	 87209.820	 78524.035	 94081.535
55.349999999999994	 271.213	 18.062	 271.853	 261.392	 286.326	 299.815	 148.784	 243.095	 180.713	 524.218	 85175.198	 15419.431	 86119.047	 73380.039	 95601.750
55.45	 279.969	 15.189	 277.044	 271.301	 288.278	 282.909	 147.998	 232.934	 157.396	 326.693	 83899.641	 17797.729	 82457.336	 68764.195	 97500.375
55.55	 280.186	 18.577	 276.137	 265.650	 300.656	 335.680	 120.392	 310.440	 261.512	 468.324	 89741.125	 20102.900	 87063.984	 72779.961	 106188.016
55.650000000000006	 282.180	 14.671	 279.508	 271.786	 286.758	 392.769	 129.149	 324.656	 280.739	 533.090	 99263.469	 17597.451	 98276.812	 87391.766	 112855.812
55.75	 276.509	 7.220	 275.059	 271.241	 282.485	 407.939	 124.104	 479.723	 278.994	 533.909	 103115.099	 14533.326	 105380.520	 89713.447	 113500.119
55.849999999999994	 286.984	 15.755	 281.792	 274.034	 292.338	 402.140	 121.445	 481.928	 276.070	 519.400	 82725.340	 14550.552	 83166.617	 74800.131	 89446.840
55.95	 286.551	 16.731	 274.706	 270.823	 302.216	 403.698	 96.440	 476.066	 305.692	 495.398	 62744.346	 21945.377	 76987.652	 38611.621	 82084.709
56.05	 278.015	 10.779	 277.226	 276.106	 280.116	 426.519	 101.526	 508.401	 312.753	 518.594	 83271.438	 16645.421	 85231.969	 81272.859	 89136.641
56.150000000000006	 285.091	 14.648	 280.101	 276.069	 290.015	 449.223	 108.789	 510.884	 320.692	 537.811	 83166.788	 15746.880	 87766.750	 74871.594	 92823.828
56.25	 290.922	 11.206	 296.451	 281.693	 299.477	 405.837	 118.790	 494.138	 287.785	 522.390	 62236.025	 15446.498	 66314.672	 48191.617	 70546.000
56.349999999999994	 294.586	 6.475	 294.462	 290.390	 298.594	 402.955	 119.289	 492.369	 279.730	 518.633	 55379.412	 11021.525	 60126.707	 44199.387	 64967.514
56.45	 290.727	 7.784	 293.164	 285.561	 295.445	 405.779	 106.760	 490.440	 296.310	 509.926	 54789.303	 12894.232	 62588.949	 42759.523	 66679.785
56.55	 290.375	 15.128	 296.929	 283.980	 298.668	 407.608	 109.528	 498.178	 297.322	 512.623	 53682.559	 9822.865	 58237.566	 44232.154	 62138.531
56.650000000000006	 285.561	 12.946	 293.695	 274.750	 296.821	 415.174	 104.750	 495.935	 306.715	 517.175	 52277.027	 10940.655	 56592.691	 41170.359	 62838.891
56.75	 285.309	 17.693	 295.324	 273.512	 296.762	 443.410	 107.150	 505.335	 293.553	 517.722	 65988.765	 7893.394	 65558.348	 62870.216	 70754.088
56.849999999999994	 297.519	 4.118	 299.048	 293.030	 301.179	 508.692	 6.316	 508.415	 504.145	 512.902	 69562.946	 3121.793	 69081.238	 67175.359	 71460.268
56.95	 303.664	 1.363	 303.645	 302.588	 304.843	 498.440	 6.544	 497.570	 493.607	 502.858	 65563.122	 2916.084	 65052.844	 63421.820	 67428.840
57.05	 302.421	 2.174	 302.031	 301.109	 304.337	 496.274	 5.109	 496.101	 492.881	 499.728	 66249.639	 1824.200	 66265.418	 65018.723	 67354.311
57.150000000000006	 293.073	 4.143	 294.079	 291.164	 295.695	 472.879	 37.091	 491.528	 441.504	 504.722	 63460.537	 4401.712	 64218.969	 60261.602	 66579.062
57.25	 287.828	 2.944	 287.768	 285.678	 289.747	 451.757	 9.759	 453.041	 446.937	 458.212	 55843.311	 2686.042	 56074.797	 54527.277	 57572.598
57.349999999999994	 293.037	 9.114	 295.254	 283.032	 301.152	 470.369	 12.122	 468.139	 461.156	 476.981	 70180.628	 10303.431	 72499.273	 59173.938	 78640.891
57.45	 300.180	 7.432	 302.496	 301.138	 304.775	 451.424	 20.291	 458.743	 454.074	 462.034	 72136.579	 4584.283	 72039.133	 70058.172	 74518.434
57.55	 276.770	 7.910	 273.704	 270.931	 279.847	 384.256	 33.515	 370.545	 359.832	 401.709	 63576.447	 9659.889	 61102.207	 56479.906	 70537.125
57.650000000000006	 276.086	 2.358	 275.708	 274.224	 278.303	 370.227	 9.570	 370.350	 363.798	 377.762	 51210.393	 5483.344	 50212.148	 48062.464	 53002.991
57.75	 277.747	 1.255	 277.565	 276.835	 278.447	 382.101	 6.029	 381.467	 377.924	 385.501	 49355.723	 2713.424	 49178.576	 47541.122	 51022.317
57.849999999999994	 279.339	 1.290	 279.372	 278.554	 280.074	 380.829	 5.508	 380.287	 377.299	 383.676	 47460.043	 2557.314	 47355.031	 45985.043	 48851.055
57.95	 280.165	 1.002	 280.196	 279.528	 280.753	 380.321	 4.416	 380.488	 377.810	 383.246	 47307.904	 2325.843	 47228.859	 45953.652	 48514.193
