r [Rsol]	 vr_mean [km/s]	 vr_stddev [km/s]	 vr_median [km/s]	 vr_q1 [km/s]	 vr_q3 [km/s]	 rho_mean [cm-3]	 rho_stddev [cm-3]	 rho_median [cm-3]	 rho_q1 [cm-3]	 rho_q3 [cm-3]	 T_mean [K]	 T_stddev [K]	 T_median [K]	 T_q1 [K]	 T_q3 [K]	 # data points
19.35	 285.947	 4.615	 285.851	 282.700	 287.159	 6135.398	 286.302	 6211.850	 5963.176	 6395.785	 74721.414	 6572.700	 75339.320	 71529.840	 76593.012	 7
20.65	 295.715	 7.733	 296.830	 287.439	 302.007	 5532.091	 566.168	 5694.766	 5348.567	 5933.121	 72310.046	 10621.686	 74658.430	 66575.309	 79943.828	 11
20.75	 293.085	 7.599	 292.540	 288.221	 300.674	 5350.633	 485.453	 5420.714	 5028.938	 5579.573	 60316.027	 3731.764	 59944.051	 57973.672	 64122.125	 5
23.35	 273.562	 1.717	 272.925	 272.178	 274.521	 3667.454	 82.924	 3633.854	 3610.903	 3701.228	 50632.857	 1197.058	 50553.062	 49929.064	 51387.670	 7
23.45	 275.115	 2.475	 274.902	 273.028	 276.422	 3586.866	 282.410	 3534.470	 3383.091	 3722.939	 51499.030	 2950.047	 51159.775	 50118.389	 52611.019	 14
23.55	 279.943	 6.268	 276.902	 275.424	 285.932	 3537.941	 208.829	 3480.958	 3450.730	 3578.025	 51098.542	 4719.069	 51196.234	 48245.379	 51557.107	 7
23.65	 286.017	 17.352	 277.998	 274.230	 289.786	 3585.199	 414.789	 3619.896	 3405.968	 3799.126	 51918.539	 13065.496	 49387.512	 44089.568	 57216.482	 4
23.75	 297.075	 35.025	 290.789	 282.888	 301.569	 3953.665	 651.786	 3991.645	 3867.744	 4130.870	 64122.273	 74961.028	 52219.117	 50509.643	 55006.957	 43
23.85	 286.395	 5.925	 285.303	 282.650	 289.370	 3398.696	 181.405	 3324.497	 3303.011	 3514.136	 52695.934	 3781.989	 52505.906	 50586.297	 54488.589	 14
23.95	 221.599	 0.708	 221.599	 221.245	 221.953	 2689.534	 202.409	 2689.534	 2588.330	 2790.739	 106084.539	 2436.602	 106084.539	 104866.238	 107302.840	 2
24.05	 227.702	 3.912	 227.286	 224.245	 231.673	 3125.111	 361.530	 3045.494	 2974.170	 3339.916	 95526.574	 10897.949	 94869.367	 87613.801	 100413.383	 23
25.05	 250.498	 2.245	 250.755	 249.192	 251.932	 2123.738	 58.034	 2157.854	 2099.944	 2164.589	 91668.786	 1406.568	 91863.688	 90860.312	 92574.711	 3
25.15	 237.628	 12.378	 231.198	 229.761	 247.508	 2098.867	 334.914	 2149.632	 1842.468	 2196.445	 118284.081	 7184.984	 117532.410	 115060.027	 119425.342	 6
25.25	 419.691	 78.660	 419.691	 380.361	 459.021	 290.010	 39.474	 290.010	 270.273	 309.746	 454289.688	 15970.594	 454289.688	 446304.391	 462274.984	 2
25.35	 342.686	 6.527	 342.580	 338.493	 346.992	 272.660	 43.447	 260.620	 237.218	 296.316	 312111.937	 41522.414	 308685.906	 279975.961	 345149.086	 40
25.45	 335.565	 11.061	 335.550	 330.512	 341.776	 237.665	 214.797	 218.458	 209.492	 229.399	 228883.738	 35863.645	 223388.062	 201793.656	 253177.656	 1173
25.55	 341.674	 8.740	 341.474	 334.792	 347.878	 212.604	 14.879	 211.992	 202.262	 222.405	 216633.865	 30945.557	 210979.141	 192138.906	 237855.906	 2177
25.65	 355.496	 12.894	 356.331	 345.498	 364.125	 234.889	 26.151	 230.973	 217.427	 247.299	 255551.908	 48955.503	 246247.188	 221004.074	 277318.992	 2192
25.75	 360.080	 18.029	 356.855	 349.933	 366.373	 239.667	 113.505	 230.898	 219.347	 244.936	 295872.550	 121931.148	 264050.312	 234169.461	 311635.398	 2264
25.85	 336.595	 33.924	 350.006	 302.779	 358.771	 509.728	 436.322	 233.844	 215.071	 1023.296	 219746.763	 93482.474	 223894.953	 122480.582	 268807.609	 3203
25.95	 336.621	 49.313	 350.237	 294.087	 359.210	 606.266	 496.787	 232.277	 216.067	 1131.951	 226129.310	 143280.044	 213729.086	 106830.453	 256083.699	 3682
26.05	 363.947	 10.814	 360.921	 355.559	 370.420	 220.093	 17.546	 217.159	 209.517	 226.561	 266224.035	 50390.407	 251273.109	 231249.133	 290632.078	 2203
26.15	 372.930	 12.316	 370.728	 363.848	 379.489	 237.196	 33.624	 228.952	 215.497	 248.418	 280362.156	 55576.096	 269857.250	 245968.297	 298056.836	 2128
26.25	 371.111	 15.521	 368.750	 358.619	 380.251	 238.929	 38.304	 227.255	 213.701	 250.932	 286311.750	 64844.744	 270366.984	 238987.480	 314947.578	 1998
26.35	 375.845	 19.066	 375.140	 359.940	 386.824	 230.150	 38.324	 218.005	 205.404	 241.093	 323060.176	 91571.544	 303276.656	 257796.914	 360780.594	 2063
26.45	 377.244	 17.861	 374.114	 366.551	 384.097	 208.859	 30.731	 200.635	 189.734	 218.451	 349011.290	 125363.101	 317004.344	 275442.727	 374194.305	 2142
26.55	 384.803	 27.478	 380.292	 366.886	 399.486	 240.167	 208.493	 202.398	 191.716	 228.615	 412149.771	 151864.617	 380955.969	 302439.422	 479935.984	 1987
26.65	 378.665	 10.216	 377.990	 372.803	 383.112	 199.812	 60.607	 195.799	 185.240	 205.570	 314948.184	 60538.408	 303303.781	 278663.586	 341636.117	 698
26.75	 386.673	 18.022	 381.616	 372.425	 396.573	 200.922	 30.503	 192.747	 181.618	 211.138	 361542.978	 119336.129	 320639.562	 277358.633	 408657.328	 2198
26.85	 389.398	 17.341	 389.074	 378.080	 399.104	 217.140	 42.013	 206.240	 187.404	 235.239	 378873.635	 106169.876	 359905.594	 310846.578	 424013.664	 1896
26.95	 363.634	 38.629	 371.899	 315.385	 386.895	 263.214	 96.152	 215.839	 191.774	 352.289	 308107.794	 132591.020	 281483.234	 205461.773	 357141.453	 2890
27.05	 390.832	 42.193	 401.884	 390.540	 412.856	 258.126	 142.398	 213.431	 193.593	 260.236	 348583.320	 107528.885	 343084.609	 291490.492	 406666.133	 2356
27.15	 373.657	 53.388	 394.537	 342.541	 406.988	 251.827	 103.589	 201.554	 184.477	 294.899	 366859.189	 151986.865	 355227.188	 260133.980	 442927.273	 2836
27.25	 385.531	 29.612	 383.509	 373.715	 399.073	 249.160	 80.952	 269.052	 166.188	 309.604	 337085.201	 106607.609	 303705.031	 250164.609	 414342.344	 5083
27.35	 403.505	 36.569	 395.822	 384.525	 419.468	 258.487	 110.895	 188.473	 160.045	 344.197	 377673.871	 150821.642	 332070.641	 239329.172	 509628.766	 4152
27.45	 435.760	 37.923	 430.987	 410.654	 458.158	 282.876	 115.906	 247.818	 169.553	 385.093	 417667.891	 117599.122	 423170.156	 334036.609	 473868.453	 2979
27.55	 401.755	 18.263	 397.176	 390.023	 410.600	 168.732	 38.733	 161.592	 153.265	 172.264	 291542.703	 80607.526	 278244.594	 232518.672	 332067.906	 2223
27.65	 346.721	 83.807	 389.224	 247.710	 410.056	 283.418	 141.486	 185.062	 153.782	 433.088	 268842.751	 175701.679	 223188.562	 143430.953	 308448.312	 3549
27.75	 328.839	 73.572	 304.692	 253.250	 401.720	 323.077	 144.070	 383.265	 159.093	 438.825	 233040.670	 130408.475	 197307.688	 147718.859	 263816.391	 5299
27.85	 340.335	 66.204	 325.698	 263.014	 402.222	 292.778	 122.414	 337.065	 158.387	 379.130	 238694.832	 124683.041	 217193.625	 139846.617	 271319.359	 5155
27.95	 342.277	 65.885	 323.094	 267.806	 401.224	 298.407	 126.359	 324.973	 155.438	 391.821	 242391.053	 132287.968	 218520.648	 158692.809	 251184.812	 5916
28.05	 369.646	 67.627	 399.455	 325.342	 413.976	 256.978	 144.912	 166.047	 145.287	 354.792	 294990.840	 174729.390	 251815.781	 219599.809	 319786.664	 3596
28.15	 405.841	 51.901	 416.795	 341.391	 441.934	 250.479	 162.409	 161.982	 147.398	 375.995	 403763.120	 208669.017	 343739.719	 237820.906	 490498.375	 2853
28.25	 402.438	 38.877	 407.130	 400.325	 422.866	 208.010	 129.908	 147.356	 139.339	 171.696	 307461.903	 110770.298	 277236.312	 235735.016	 347716.688	 2713
28.35	 419.265	 48.064	 413.857	 407.868	 434.204	 181.208	 114.737	 143.249	 135.520	 156.822	 373229.248	 277700.176	 255645.531	 204682.609	 412104.094	 2339
28.45	 379.057	 76.131	 422.134	 284.195	 435.557	 214.423	 99.567	 146.169	 135.435	 330.715	 282630.907	 163276.746	 236062.914	 173868.984	 313480.734	 3516
28.55	 369.551	 76.416	 415.423	 280.370	 434.940	 223.653	 95.847	 161.358	 138.155	 303.731	 236846.234	 112186.906	 226809.609	 136379.562	 291992.125	 4093
28.65	 361.269	 73.485	 343.365	 288.319	 436.909	 249.480	 114.780	 275.267	 136.160	 293.332	 242494.691	 135207.703	 229831.469	 131559.734	 297988.844	 5177
28.75	 373.484	 72.216	 374.820	 292.044	 438.177	 290.169	 120.791	 274.428	 157.080	 396.390	 317336.878	 197644.127	 297272.469	 132363.371	 423530.500	 6176
28.85	 363.162	 70.440	 343.061	 289.717	 432.476	 288.092	 117.274	 282.995	 151.536	 396.255	 279390.630	 167931.745	 258939.828	 130880.688	 350851.219	 6759
28.95	 368.903	 79.577	 338.640	 293.067	 449.739	 275.729	 113.278	 259.997	 156.066	 377.578	 297884.612	 203163.591	 241476.398	 132979.977	 378965.570	 6400
29.05	 377.682	 71.533	 352.787	 320.194	 445.217	 276.514	 122.370	 314.184	 132.639	 373.620	 330793.054	 186759.043	 275473.344	 199836.609	 410626.070	 5936
29.15	 381.234	 66.198	 372.026	 318.853	 442.602	 258.674	 133.935	 241.980	 130.742	 383.727	 322922.601	 162110.218	 298639.750	 168556.367	 423103.109	 5860
29.25	 376.430	 58.611	 384.168	 306.880	 422.467	 270.430	 138.474	 258.688	 128.049	 395.138	 305858.578	 122606.737	 309062.516	 179422.652	 392331.117	 6096
29.35	 365.046	 50.615	 363.511	 307.910	 411.839	 287.990	 145.832	 257.254	 126.879	 430.858	 289704.814	 120597.871	 275591.406	 175771.254	 368965.875	 6364
29.45	 406.253	 50.054	 424.717	 411.503	 436.334	 173.029	 112.424	 125.204	 121.026	 139.458	 292992.955	 91926.405	 283492.734	 243231.172	 335823.375	 2922
29.55	 412.849	 28.713	 417.857	 405.040	 425.833	 142.000	 88.455	 123.860	 120.075	 128.260	 282166.900	 64562.770	 273603.531	 245740.770	 304536.750	 2376
29.65	 398.077	 53.654	 414.553	 396.448	 431.816	 211.484	 159.741	 124.620	 119.013	 149.117	 292052.953	 83970.464	 272510.547	 235783.898	 326053.367	 2864
29.75	 390.621	 53.154	 404.661	 331.665	 424.195	 237.485	 171.893	 123.820	 115.269	 453.804	 375685.562	 174365.398	 327311.469	 274689.812	 411898.891	 2787
29.85	 393.125	 41.314	 403.818	 357.193	 420.174	 249.311	 162.536	 123.843	 111.671	 433.870	 404834.282	 151310.241	 376195.672	 294506.414	 477274.352	 3120
29.95	 406.320	 54.441	 415.824	 371.337	 436.215	 220.553	 153.969	 119.223	 112.308	 415.496	 409217.995	 179500.893	 365119.984	 295201.172	 474245.977	 3210
30.05	 409.590	 54.395	 417.353	 379.296	 436.656	 213.900	 156.871	 118.630	 113.070	 411.661	 379075.941	 163191.507	 331669.047	 267382.711	 454716.195	 3114
30.15	 409.325	 61.286	 428.147	 378.416	 448.090	 210.211	 161.225	 119.007	 112.277	 364.865	 370259.787	 129859.317	 350295.250	 284835.227	 435520.836	 3170
30.25	 418.772	 54.516	 428.878	 378.254	 458.660	 216.753	 137.668	 119.795	 112.194	 377.055	 405269.303	 121953.181	 395340.906	 316356.875	 480173.344	 3499
30.35	 437.139	 53.516	 447.678	 421.516	 472.306	 161.377	 106.020	 116.244	 111.964	 123.243	 378430.733	 114468.105	 361076.641	 295720.742	 435579.633	 2626
30.45	 415.834	 48.612	 424.437	 395.957	 442.804	 187.828	 123.159	 115.738	 108.552	 347.611	 354978.320	 115706.805	 331110.172	 270136.758	 419330.680	 3036
30.55	 405.244	 54.499	 416.903	 360.389	 439.916	 209.091	 133.095	 117.608	 108.797	 368.967	 341040.913	 124713.861	 320547.984	 252032.324	 405399.633	 3460
30.65	 472.870	 62.966	 487.388	 453.115	 514.521	 169.205	 119.059	 122.747	 116.548	 132.660	 529096.170	 189105.149	 500573.469	 417281.172	 600560.531	 1971
30.75	 458.165	 74.405	 482.028	 427.459	 504.918	 165.205	 135.540	 116.248	 110.627	 123.409	 430358.773	 192364.934	 430850.750	 284500.031	 514003.844	 805
30.85	 354.259	 49.083	 348.773	 310.334	 398.874	 260.215	 277.470	 218.746	 123.138	 297.925	 272872.386	 68489.274	 265133.594	 242096.203	 294449.281	 2129
30.95	 357.743	 46.157	 372.328	 314.734	 395.080	 232.615	 276.539	 227.301	 124.027	 257.174	 268831.131	 99124.592	 249877.398	 194529.473	 312598.297	 4644
31.05	 402.298	 56.015	 409.972	 351.777	 439.869	 169.936	 63.498	 139.756	 131.798	 221.833	 376594.883	 155366.885	 353107.344	 257723.617	 462101.141	 3119
31.15	 395.982	 61.539	 402.057	 329.417	 442.326	 331.219	 564.726	 141.121	 130.855	 223.842	 374834.711	 195178.527	 348433.219	 228019.469	 500474.594	 2989
31.25	 406.276	 61.790	 408.620	 370.256	 451.765	 191.147	 154.579	 150.196	 142.059	 176.785	 431438.887	 184546.437	 407674.484	 280187.188	 555439.953	 2802
31.35	 350.540	 40.756	 360.975	 309.983	 378.156	 213.951	 95.476	 176.411	 146.917	 252.612	 289710.294	 95129.234	 276178.906	 211278.859	 336731.281	 4245
31.45	 391.957	 67.831	 373.594	 353.547	 398.555	 208.190	 92.419	 188.897	 145.902	 241.374	 357892.220	 100137.263	 345188.250	 280770.156	 426289.219	 4133
31.55	 344.376	 28.386	 339.456	 321.469	 363.081	 210.659	 103.880	 205.674	 156.237	 217.687	 286940.822	 122723.545	 241116.688	 193940.688	 352518.062	 4508
31.65	 344.484	 31.656	 343.789	 315.655	 368.949	 253.969	 143.873	 217.314	 169.091	 233.381	 298358.935	 151562.110	 233131.805	 174295.363	 411793.688	 4916
31.75	 343.754	 44.543	 320.448	 313.428	 367.099	 231.457	 117.686	 211.748	 175.677	 221.459	 289180.810	 189785.865	 179073.703	 161457.863	 399449.406	 3718
31.85	 311.302	 21.130	 308.562	 301.468	 319.341	 260.083	 70.844	 238.904	 222.293	 271.289	 218652.745	 61189.420	 214266.688	 170867.691	 247905.613	 4062
31.95	 304.760	 15.184	 304.110	 297.152	 313.640	 280.853	 104.495	 239.947	 219.251	 312.415	 210014.543	 60149.868	 199616.234	 162975.906	 239104.336	 5202
32.05	 308.240	 26.200	 309.423	 290.118	 324.049	 298.252	 123.509	 263.794	 222.206	 318.297	 196515.218	 41468.666	 189075.734	 170644.863	 212199.930	 4946
32.150000000000006	 302.241	 44.720	 307.943	 263.050	 325.507	 312.179	 140.472	 296.102	 206.723	 348.337	 198137.571	 106012.438	 165515.867	 150700.824	 184106.996	 5134
32.25	 335.530	 70.898	 332.900	 258.513	 394.673	 352.065	 151.166	 369.739	 205.293	 424.936	 282446.250	 170161.808	 171267.125	 149163.328	 447406.094	 3581
32.349999999999994	 302.763	 29.438	 306.181	 275.457	 320.358	 297.361	 114.441	 273.741	 204.470	 356.795	 198906.979	 66689.886	 175588.141	 156886.332	 209648.488	 4658
32.45	 297.577	 41.432	 302.232	 258.298	 321.094	 282.055	 78.646	 242.033	 219.033	 341.575	 208156.656	 81871.809	 181268.578	 158116.102	 224129.648	 4892
32.55	 327.562	 24.106	 321.766	 312.431	 338.891	 221.237	 64.384	 213.750	 202.395	 226.010	 234792.752	 65906.692	 229296.148	 186463.953	 266102.305	 5098
32.650000000000006	 357.915	 58.384	 330.144	 313.770	 394.129	 210.043	 112.217	 203.714	 169.429	 215.490	 252560.124	 77547.910	 254290.656	 187071.078	 305312.266	 4804
32.75	 336.959	 59.233	 318.901	 305.596	 349.979	 306.653	 316.684	 202.156	 190.729	 263.220	 225956.677	 81301.104	 204450.062	 167463.234	 265184.781	 4631
32.849999999999994	 300.013	 29.941	 313.660	 270.344	 323.913	 260.231	 114.888	 247.439	 196.450	 306.719	 210838.569	 50012.496	 199195.047	 179350.609	 227545.641	 4689
32.95	 302.622	 27.997	 307.410	 280.600	 321.865	 284.297	 204.523	 238.211	 211.256	 281.906	 220113.361	 55785.670	 213234.484	 180366.570	 250346.234	 4391
33.05	 314.385	 52.467	 306.140	 276.847	 324.081	 281.656	 197.772	 229.862	 213.522	 283.728	 238134.058	 115280.566	 193103.398	 162481.781	 269212.492	 3956
33.150000000000006	 322.044	 47.126	 312.263	 288.337	 334.801	 221.284	 52.727	 213.355	 202.530	 230.750	 234117.541	 108659.545	 184558.852	 161454.387	 274114.156	 4322
33.25	 307.667	 26.721	 306.116	 291.353	 315.192	 254.549	 178.041	 215.463	 201.574	 236.179	 193387.450	 57442.657	 180003.211	 154417.758	 214867.172	 4358
33.349999999999994	 309.954	 33.623	 303.296	 288.006	 321.071	 343.118	 345.297	 222.881	 205.555	 242.305	 213706.562	 81672.635	 187967.734	 160382.707	 236996.211	 2948
33.45	 292.705	 19.958	 287.337	 276.149	 308.000	 298.415	 250.471	 241.326	 209.770	 257.266	 164522.919	 27402.666	 158490.250	 146202.953	 176717.590	 3458
33.55	 308.854	 31.876	 300.582	 286.793	 318.044	 239.770	 113.560	 225.218	 206.733	 245.154	 199756.543	 54108.041	 185654.859	 162364.965	 223430.930	 2914
33.650000000000006	 310.982	 38.368	 301.759	 287.214	 315.555	 246.159	 113.922	 234.521	 210.496	 256.788	 220828.736	 82771.802	 197815.219	 164998.078	 253181.609	 3097
33.75	 312.680	 34.685	 306.722	 286.358	 327.881	 287.974	 251.571	 216.023	 195.518	 245.971	 202276.328	 53327.035	 191251.250	 163169.109	 230514.523	 2852
33.849999999999994	 304.650	 25.941	 298.589	 286.301	 322.091	 234.377	 140.703	 207.395	 183.412	 230.796	 193315.310	 37889.739	 187586.812	 167345.469	 214665.609	 2733
33.95	 292.182	 14.557	 290.768	 283.143	 299.361	 219.033	 40.303	 210.701	 200.487	 221.361	 180506.559	 33586.445	 174544.016	 159216.117	 193426.328	 2655
34.05	 311.537	 20.144	 312.212	 299.690	 323.741	 198.722	 67.714	 188.043	 175.665	 201.420	 206626.092	 24233.245	 205253.906	 191338.578	 221171.984	 2425
34.150000000000006	 289.218	 28.988	 280.093	 261.254	 318.500	 254.242	 89.375	 277.260	 179.860	 313.197	 178068.679	 40804.528	 172049.336	 144973.766	 206217.934	 2536
34.25	 289.456	 30.109	 278.130	 267.621	 307.328	 328.273	 201.497	 299.920	 254.760	 323.977	 162504.768	 47916.919	 150545.906	 133115.344	 170703.547	 3097
34.349999999999994	 280.419	 20.621	 273.514	 267.053	 285.837	 314.610	 106.218	 308.141	 293.718	 321.223	 166062.840	 71390.692	 140711.875	 129552.762	 157707.434	 2946
34.45	 334.764	 41.303	 333.625	 298.761	 357.581	 228.067	 122.743	 194.450	 174.203	 263.645	 319024.167	 161637.950	 268789.594	 195031.031	 403452.312	 4457
34.55	 357.321	 31.631	 349.288	 336.122	 368.234	 200.569	 135.909	 169.505	 158.801	 189.585	 331438.592	 127953.921	 303070.406	 248357.203	 374793.219	 5245
34.650000000000006	 350.764	 39.141	 344.917	 333.171	 364.382	 205.788	 63.324	 183.320	 164.318	 223.596	 274681.519	 64288.535	 265471.500	 226605.883	 318113.516	 5535
34.75	 340.158	 21.041	 342.643	 328.729	 354.957	 213.072	 152.451	 167.041	 151.480	 257.885	 284807.246	 57692.848	 287259.453	 246371.887	 322401.641	 6710
34.849999999999994	 341.838	 18.238	 338.136	 330.783	 353.077	 178.043	 60.758	 153.116	 144.592	 189.617	 271120.891	 68921.152	 259815.594	 215803.965	 319316.750	 4650
34.95	 336.371	 19.955	 332.704	 324.489	 343.178	 167.351	 67.859	 153.253	 142.885	 168.856	 287297.306	 84947.545	 268326.281	 231386.734	 322417.820	 4846
35.05	 329.631	 27.048	 328.160	 310.917	 348.657	 175.111	 148.427	 133.368	 108.449	 221.120	 263925.248	 102584.182	 236465.594	 199465.531	 290567.438	 4461
35.150000000000006	 343.026	 31.605	 360.261	 313.693	 368.744	 158.052	 76.088	 102.049	 94.666	 242.447	 244798.468	 51945.234	 235326.719	 211476.875	 268957.219	 4017
35.25	 347.068	 38.797	 360.622	 310.629	 377.914	 160.544	 94.443	 101.216	 95.786	 250.463	 240452.003	 64978.726	 221500.641	 200473.523	 261415.855	 3864
35.349999999999994	 342.048	 38.797	 354.169	 304.654	 373.314	 204.601	 77.481	 227.454	 122.639	 265.346	 258104.947	 68575.339	 247882.250	 211388.781	 289540.375	 4271
35.45	 348.765	 32.225	 355.712	 324.523	 372.885	 311.274	 141.623	 283.936	 261.807	 308.842	 276302.692	 97609.835	 274944.406	 174036.312	 348546.406	 4577
35.55	 328.869	 48.760	 317.266	 283.907	 377.883	 307.154	 125.215	 271.187	 250.746	 300.888	 308074.237	 98130.646	 317804.734	 217000.238	 384261.820	 4070
35.650000000000006	 282.042	 31.966	 278.812	 260.604	 290.054	 352.058	 77.797	 321.607	 291.074	 411.496	 234528.461	 75649.952	 216545.578	 193465.738	 248217.895	 3818
35.75	 307.029	 35.323	 300.532	 287.546	 327.238	 266.196	 97.668	 235.976	 208.414	 269.633	 262443.665	 77243.924	 242519.859	 219544.203	 279748.094	 3945
35.849999999999994	 311.044	 26.277	 316.300	 304.172	 326.912	 256.768	 140.793	 196.518	 180.711	 256.207	 269072.793	 58644.936	 256953.664	 232955.801	 294459.852	 4058
35.95	 321.253	 29.555	 319.868	 310.623	 338.370	 219.827	 89.483	 192.762	 170.990	 224.383	 285194.070	 77791.991	 264311.391	 228040.156	 331484.188	 3988
36.05	 323.205	 39.416	 322.160	 311.573	 343.906	 225.469	 118.685	 182.511	 167.672	 208.509	 292741.796	 106887.198	 268554.500	 224075.531	 339546.500	 4325
36.150000000000006	 342.195	 59.339	 339.770	 309.947	 371.371	 223.774	 98.312	 183.277	 164.217	 226.108	 346807.434	 139788.479	 321585.375	 243263.273	 436628.062	 4275
36.25	 321.518	 32.828	 321.096	 303.690	 341.040	 277.995	 127.122	 310.033	 160.389	 356.663	 300147.937	 98669.182	 286242.562	 230942.879	 345604.000	 3978
36.349999999999994	 317.099	 39.828	 325.375	 298.860	 346.837	 283.958	 148.733	 261.909	 159.047	 343.197	 310775.959	 103498.478	 304165.844	 230153.312	 385762.047	 4075
36.45	 346.860	 52.576	 344.839	 322.052	 380.446	 249.225	 210.225	 190.583	 141.880	 235.882	 376375.312	 181287.034	 321993.203	 239949.625	 516000.016	 4918
36.55	 330.122	 38.335	 335.094	 314.321	 352.204	 245.630	 157.424	 201.951	 137.360	 310.806	 318563.594	 134477.485	 272305.844	 233311.828	 385470.969	 5185
36.650000000000006	 366.906	 38.072	 369.379	 347.605	 387.767	 204.821	 221.032	 122.905	 114.447	 198.824	 351310.823	 153694.995	 317899.797	 261579.129	 429821.672	 3122
36.75	 347.780	 39.997	 351.901	 306.512	 377.994	 419.607	 371.922	 247.257	 132.175	 840.171	 287215.606	 157085.975	 326972.031	 119755.781	 398560.922	 5687
36.849999999999994	 339.172	 38.877	 351.915	 304.635	 371.474	 437.075	 270.647	 269.498	 233.903	 766.120	 274501.360	 168946.712	 337071.719	 74248.531	 420091.516	 3447
36.95	 342.971	 42.567	 325.720	 309.644	 386.295	 607.235	 418.347	 287.014	 245.690	 941.568	 265625.365	 209357.468	 214093.828	 53975.789	 475910.719	 3245
37.05	 344.667	 37.206	 359.166	 316.057	 371.203	 436.286	 325.761	 252.592	 238.710	 749.890	 309164.980	 160525.889	 376702.938	 106732.736	 433804.094	 2302
37.150000000000006	 327.743	 32.945	 335.018	 290.700	 350.946	 448.178	 328.637	 279.741	 257.254	 769.392	 303903.316	 144076.460	 345824.828	 111276.982	 409302.852	 1600
37.25	 334.842	 22.633	 336.588	 320.724	 350.229	 254.755	 52.282	 251.383	 230.385	 281.993	 355624.169	 70603.067	 357768.625	 319198.031	 398159.898	 1134
37.349999999999994	 333.718	 22.000	 332.111	 323.491	 344.417	 244.493	 62.040	 238.662	 219.137	 264.991	 377942.195	 91066.290	 375754.141	 325832.617	 438619.461	 1184
37.45	 308.003	 44.062	 309.660	 268.688	 350.545	 405.542	 237.949	 256.727	 214.426	 697.596	 265442.784	 179165.438	 246957.156	 58870.053	 434996.938	 2203
37.55	 314.353	 47.677	 300.799	 286.091	 359.997	 420.098	 212.450	 282.243	 225.338	 647.490	 258003.837	 186139.564	 211355.828	 54592.619	 441640.828	 3923
37.650000000000006	 309.147	 45.652	 298.237	 286.573	 346.744	 437.281	 231.801	 414.384	 218.927	 700.445	 238437.451	 182999.487	 188517.156	 58720.090	 387837.031	 3809
37.75	 309.221	 32.146	 305.144	 295.445	 324.676	 442.787	 268.168	 282.683	 207.062	 719.727	 216128.933	 145497.212	 210222.766	 57882.845	 330928.633	 4164
37.849999999999994	 299.253	 22.394	 300.246	 289.995	 312.720	 412.152	 240.207	 276.904	 213.010	 732.621	 196202.868	 109384.567	 197826.156	 73557.689	 266133.656	 3886
37.95	 330.869	 42.193	 325.405	 302.749	 352.968	 407.437	 276.064	 225.434	 198.381	 715.127	 271155.487	 164016.775	 279265.531	 88384.852	 407399.562	 3543
38.05	 351.692	 51.860	 338.258	 312.206	 385.103	 383.125	 278.902	 230.719	 185.375	 722.356	 329127.084	 185766.983	 357115.141	 99755.865	 473019.570	 4268
38.150000000000006	 347.500	 57.568	 353.629	 286.991	 386.660	 328.506	 233.597	 205.690	 190.820	 356.330	 343249.233	 171215.870	 405250.156	 168091.453	 472929.906	 3133
38.25	 389.622	 77.899	 401.113	 306.453	 461.029	 329.693	 250.829	 185.665	 171.146	 388.311	 384847.419	 189512.699	 436975.469	 269494.992	 511658.633	 3736
38.349999999999994	 340.530	 35.285	 350.015	 315.806	 365.452	 353.134	 226.604	 305.403	 179.502	 361.676	 255974.978	 94684.943	 262487.875	 206813.699	 313564.352	 2540
38.45	 347.914	 38.638	 351.613	 330.268	 374.353	 327.418	 244.395	 198.858	 157.046	 325.747	 252234.380	 103086.867	 264243.344	 191040.086	 327839.234	 4663
38.55	 343.102	 30.829	 339.156	 334.029	 352.717	 268.910	 224.040	 172.910	 148.990	 276.447	 236972.075	 89000.992	 214050.031	 186775.688	 295831.656	 5055
38.650000000000006	 332.370	 20.505	 340.104	 325.118	 345.218	 285.976	 259.344	 172.414	 154.943	 209.930	 239123.460	 86387.793	 230175.703	 200416.770	 295489.133	 5580
38.75	 328.528	 21.440	 336.124	 317.249	 344.887	 313.147	 275.115	 191.937	 161.978	 221.624	 254178.028	 97460.492	 249334.789	 211156.766	 318229.438	 5892
38.849999999999994	 335.423	 15.488	 340.419	 327.580	 346.641	 278.437	 238.844	 165.555	 159.184	 203.960	 234820.483	 88198.728	 232441.133	 190162.949	 269316.141	 5682
38.95	 336.127	 15.656	 338.141	 330.380	 346.274	 205.580	 164.442	 166.532	 159.786	 173.043	 239380.185	 54189.444	 243128.523	 213705.770	 271514.812	 4596
39.05	 340.377	 16.446	 341.887	 334.808	 350.260	 222.351	 210.490	 160.050	 144.790	 169.973	 245898.474	 68677.728	 250328.031	 208780.023	 287747.734	 4767
39.150000000000006	 341.211	 21.193	 346.155	 324.833	 356.412	 230.084	 209.441	 158.318	 148.936	 184.532	 240851.820	 61735.475	 243898.312	 206961.008	 280919.820	 4806
39.25	 344.940	 22.877	 357.187	 324.266	 363.408	 178.564	 80.147	 161.219	 154.856	 185.143	 252145.267	 39811.082	 252737.828	 232611.461	 274435.000	 4155
39.349999999999994	 361.061	 31.478	 364.106	 333.838	 385.580	 184.095	 109.023	 168.094	 161.106	 175.804	 310159.039	 95382.266	 289983.891	 238142.070	 388101.367	 4540
39.45	 348.541	 24.996	 344.929	 334.378	 370.158	 259.489	 245.174	 170.073	 163.103	 180.291	 273933.110	 81597.424	 275583.688	 226640.719	 327261.195	 5290
39.55	 347.129	 25.277	 341.990	 333.818	 365.464	 257.366	 227.325	 179.116	 172.642	 186.936	 304343.360	 112138.359	 280171.938	 225980.328	 400999.633	 5446
39.650000000000006	 343.135	 27.061	 339.095	 325.617	 362.924	 311.397	 267.837	 193.117	 173.316	 209.969	 290031.791	 118509.520	 274342.781	 228949.652	 364819.742	 5530
39.75	 350.683	 34.044	 353.009	 326.031	 378.113	 289.312	 255.292	 189.203	 172.906	 209.903	 321125.129	 128199.536	 302111.672	 240504.199	 417227.391	 4954
39.849999999999994	 352.530	 36.411	 348.223	 336.509	 371.082	 192.182	 64.926	 183.514	 167.973	 198.819	 320342.077	 96053.356	 300735.906	 265375.594	 378184.000	 4309
39.95	 341.948	 49.050	 346.178	 320.347	 376.083	 285.173	 242.783	 178.180	 168.184	 203.913	 292828.311	 128704.738	 301761.594	 232106.844	 388598.469	 5941
40.05	 337.220	 29.645	 325.714	 315.903	 360.749	 278.714	 251.731	 176.614	 161.043	 199.335	 285322.923	 91348.312	 288949.125	 239961.926	 342187.609	 5450
40.150000000000006	 338.355	 47.531	 360.272	 292.199	 373.034	 248.875	 157.428	 168.852	 159.796	 314.363	 298482.801	 95845.913	 303508.000	 247153.844	 353445.469	 4229
40.25	 338.932	 66.590	 305.854	 281.256	 400.485	 335.973	 198.141	 325.116	 168.000	 444.323	 302707.162	 183462.152	 209347.055	 139370.090	 450720.234	 5116
40.349999999999994	 320.777	 57.468	 306.108	 286.508	 370.453	 327.140	 165.120	 262.168	 181.399	 468.032	 296092.414	 188301.862	 186917.016	 136383.039	 478752.781	 5307
40.45	 326.400	 33.381	 315.821	 300.882	 356.414	 298.865	 158.740	 198.686	 177.574	 444.802	 280578.800	 145597.399	 256502.469	 138235.117	 415764.875	 5063
40.55	 309.513	 63.564	 299.637	 282.445	 356.518	 312.161	 178.254	 275.566	 193.468	 317.958	 282807.733	 202705.313	 213991.102	 107564.400	 457381.789	 6282
40.650000000000006	 293.887	 58.411	 295.272	 229.202	 342.969	 273.565	 91.837	 271.444	 201.322	 299.869	 260102.593	 179218.572	 229220.820	 70685.758	 428514.320	 5458
40.75	 296.381	 59.307	 296.879	 250.124	 317.361	 292.993	 122.935	 267.418	 230.272	 324.988	 251085.274	 157839.884	 227995.531	 96737.762	 322285.391	 4491
40.849999999999994	 280.571	 24.261	 283.669	 256.610	 299.808	 282.744	 105.382	 266.884	 248.749	 282.611	 181640.273	 70598.777	 163940.562	 122195.633	 232480.461	 4584
40.95	 292.893	 30.866	 293.335	 267.804	 315.483	 262.798	 88.671	 248.358	 217.448	 281.392	 195256.682	 59681.362	 184297.930	 149508.996	 229421.727	 3256
41.05	 303.946	 30.816	 306.467	 291.017	 316.593	 332.437	 164.780	 285.070	 248.687	 322.949	 240349.018	 76539.123	 255219.234	 204215.750	 291729.656	 2881
41.150000000000006	 321.153	 65.395	 329.746	 263.160	 379.168	 290.569	 184.622	 195.158	 165.244	 350.393	 263637.962	 117520.706	 282098.750	 167209.906	 345350.156	 3909
41.25	 305.545	 61.913	 295.971	 248.654	 368.618	 348.253	 220.897	 295.521	 165.299	 429.345	 220200.134	 133135.550	 202289.516	 95256.016	 333403.219	 4985
41.349999999999994	 320.104	 43.724	 334.195	 293.208	 348.563	 229.205	 138.163	 179.272	 168.623	 225.309	 258946.865	 107294.133	 282627.000	 216191.422	 330228.594	 3049
41.45	 318.219	 47.069	 332.816	 279.226	 345.844	 280.738	 202.298	 183.865	 172.558	 317.969	 218256.582	 94876.658	 228422.664	 152874.570	 284483.539	 3596
41.55	 306.222	 40.447	 330.198	 261.923	 340.232	 289.496	 206.876	 188.393	 176.039	 321.507	 189753.335	 95512.937	 201667.484	 105699.016	 261571.992	 4424
41.650000000000006	 298.925	 45.983	 295.996	 250.694	 344.426	 371.612	 221.934	 324.421	 173.309	 531.239	 186799.061	 101872.708	 160507.641	 99239.795	 272179.438	 5842
41.75	 298.580	 47.637	 284.987	 255.073	 351.122	 360.428	 201.648	 333.782	 169.169	 457.803	 175813.527	 97195.881	 155386.359	 86851.500	 260461.836	 7039
41.849999999999994	 301.575	 50.806	 286.706	 254.284	 357.139	 347.702	 191.827	 288.981	 176.163	 451.379	 197533.042	 125629.092	 151006.758	 80214.160	 304450.648	 7080
41.95	 305.554	 57.686	 279.759	 252.129	 370.196	 324.891	 165.875	 300.550	 181.294	 401.677	 204459.273	 115891.421	 187313.703	 89879.234	 304426.875	 7081
42.05	 290.168	 53.574	 259.981	 245.242	 356.086	 380.163	 190.937	 326.040	 181.328	 550.384	 189054.964	 119344.720	 156869.227	 70328.602	 304973.188	 7540
42.150000000000006	 294.850	 53.610	 288.911	 247.277	 354.996	 382.341	 208.671	 309.786	 180.464	 574.306	 194302.773	 114682.745	 140235.078	 98729.414	 308447.328	 7283
42.25	 309.191	 49.945	 288.055	 269.701	 361.334	 307.985	 193.618	 206.327	 171.585	 353.844	 214867.729	 133214.198	 137233.500	 108189.699	 343824.609	 6786
42.349999999999994	 326.295	 42.873	 309.829	 298.082	 370.366	 245.307	 187.861	 170.450	 161.741	 188.080	 227905.192	 134823.561	 145565.125	 109657.660	 363548.219	 6755
42.45	 328.963	 59.606	 314.814	 298.647	 376.329	 213.731	 105.944	 172.575	 162.657	 203.052	 245187.366	 154522.899	 145190.633	 121424.578	 396483.250	 6796
42.55	 319.627	 57.881	 304.670	 266.437	 379.201	 217.654	 56.470	 192.391	 175.778	 264.321	 240986.491	 152170.354	 158641.297	 116533.566	 389396.250	 6883
42.650000000000006	 323.243	 37.453	 309.127	 297.349	 359.801	 259.098	 114.785	 237.796	 202.081	 267.206	 239672.877	 143005.446	 162633.828	 140817.219	 384627.188	 7757
42.75	 331.748	 53.703	 306.562	 296.905	 383.513	 282.132	 149.219	 245.541	 178.748	 294.622	 259246.545	 162680.873	 152549.906	 112415.945	 416796.484	 5727
42.849999999999994	 333.025	 63.045	 308.714	 283.990	 395.500	 281.276	 150.775	 243.346	 179.611	 279.386	 237870.275	 178669.195	 109369.984	 88229.016	 405357.953	 6087
42.95	 323.556	 61.892	 307.226	 275.992	 394.918	 264.444	 126.713	 239.964	 189.171	 266.054	 205968.728	 152285.984	 119394.383	 83003.445	 353865.719	 7269
43.05	 314.975	 63.027	 296.323	 269.359	 374.276	 226.769	 93.712	 198.918	 175.864	 252.995	 211186.901	 152169.303	 123857.047	 101006.484	 349796.719	 6909
43.150000000000006	 312.336	 55.039	 285.032	 271.460	 377.485	 267.970	 162.976	 231.396	 171.742	 268.440	 213508.321	 138736.138	 126727.996	 108775.643	 349729.156	 6770
43.25	 312.707	 65.506	 289.561	 257.064	 383.569	 247.494	 110.351	 226.719	 165.052	 304.746	 210795.883	 139231.014	 125162.617	 106573.572	 333169.562	 6358
43.349999999999994	 321.836	 67.175	 290.839	 278.617	 390.798	 232.099	 79.529	 215.933	 173.465	 255.412	 233697.443	 159780.775	 131957.469	 115128.523	 379231.781	 6489
43.45	 310.469	 58.203	 288.147	 272.838	 377.242	 244.069	 88.691	 240.292	 176.283	 267.275	 219869.218	 143913.167	 134852.500	 119379.484	 363800.594	 6905
43.55	 322.178	 58.387	 296.241	 290.095	 384.077	 218.089	 57.761	 222.195	 178.784	 234.822	 242688.072	 162761.584	 135047.539	 118138.684	 403681.664	 6310
43.650000000000006	 323.630	 63.127	 299.861	 258.195	 397.424	 202.575	 40.932	 215.357	 162.399	 230.185	 216551.254	 162633.853	 116831.840	 94366.734	 369921.547	 7054
43.75	 322.092	 61.337	 300.911	 269.588	 391.925	 200.852	 43.357	 210.981	 156.802	 228.498	 205244.449	 149398.210	 110757.848	 96162.312	 340644.945	 7170
43.849999999999994	 313.577	 58.752	 282.862	 268.641	 386.288	 211.339	 64.864	 201.121	 152.207	 270.206	 202242.898	 155497.893	 104320.570	 93554.809	 352002.289	 7514
43.95	 319.263	 59.902	 285.459	 275.352	 391.801	 185.478	 44.166	 191.136	 137.513	 219.794	 205187.156	 150427.808	 106563.328	 96964.062	 356368.141	 7639
44.05	 320.170	 62.291	 288.710	 270.370	 401.349	 183.253	 44.388	 189.668	 137.914	 210.467	 202203.402	 160585.661	 104397.266	 93154.535	 354395.141	 7347
44.150000000000006	 324.296	 67.151	 292.074	 278.916	 389.524	 192.545	 98.927	 174.619	 158.976	 187.718	 199147.320	 201930.165	 98461.117	 76864.219	 291519.898	 7242
44.25	 325.462	 62.826	 297.601	 284.103	 322.733	 204.149	 122.755	 169.961	 155.220	 182.643	 189561.469	 186729.439	 103838.852	 70344.736	 152538.875	 7572
44.349999999999994	 321.305	 63.785	 291.274	 281.118	 320.649	 220.941	 137.110	 176.206	 158.284	 196.526	 185333.382	 181449.052	 104692.363	 69850.473	 153394.645	 8302
44.45	 304.689	 49.517	 285.672	 279.009	 298.295	 242.887	 180.490	 179.037	 161.351	 203.925	 133713.899	 126507.951	 100527.281	 62629.801	 123199.648	 7181
44.55	 322.727	 57.649	 293.761	 286.994	 331.960	 171.863	 100.192	 163.542	 119.135	 182.165	 156299.759	 148782.048	 112004.988	 44545.611	 166967.238	 7004
44.650000000000006	 315.038	 51.078	 292.390	 284.216	 305.846	 155.440	 52.779	 164.592	 143.494	 173.209	 120581.513	 108939.323	 97330.219	 47000.070	 125515.375	 6449
44.75	 321.108	 46.605	 305.172	 286.192	 325.771	 158.785	 92.155	 154.735	 126.632	 170.444	 116154.481	 78914.460	 100217.461	 62366.430	 135608.508	 6947
44.849999999999994	 324.897	 51.426	 308.862	 279.144	 396.477	 184.111	 127.556	 172.135	 82.805	 194.857	 108911.905	 59884.147	 96702.938	 53672.312	 146992.203	 8025
44.95	 323.597	 53.471	 298.297	 283.392	 399.479	 205.342	 159.719	 170.480	 83.932	 188.796	 113573.784	 58580.783	 93557.461	 67054.758	 149700.203	 8783
45.05	 322.094	 58.256	 296.930	 278.505	 405.231	 216.085	 178.110	 171.675	 82.027	 198.407	 111312.470	 53953.959	 89521.137	 71891.910	 141610.172	 8898
45.150000000000006	 326.427	 60.845	 311.586	 272.278	 406.393	 243.165	 216.122	 156.257	 81.685	 194.688	 103785.714	 56145.123	 86244.078	 63651.305	 124731.680	 9577
45.25	 333.618	 63.112	 316.775	 275.157	 418.103	 193.880	 147.405	 159.204	 78.207	 180.489	 102168.277	 55935.606	 76302.215	 66174.004	 127281.502	 8398
45.349999999999994	 336.880	 68.788	 326.755	 262.740	 425.306	 174.738	 146.572	 162.082	 74.140	 184.527	 106653.872	 58239.077	 79260.289	 67943.383	 131661.016	 7707
45.45	 346.383	 63.674	 328.543	 292.299	 426.355	 205.894	 173.601	 187.901	 70.121	 213.053	 112800.465	 52499.032	 96822.062	 71439.463	 139188.980	 6604
45.55	 349.353	 67.852	 310.702	 297.573	 436.261	 187.221	 152.432	 151.535	 66.321	 209.018	 125176.793	 48560.597	 113565.977	 88829.125	 148774.906	 5717
45.650000000000006	 341.531	 69.754	 306.187	 288.241	 436.623	 214.929	 167.761	 162.973	 66.222	 261.741	 128006.624	 71390.170	 95063.422	 71475.328	 175251.703	 6669
45.75	 371.815	 85.925	 339.156	 318.844	 439.325	 202.067	 154.549	 154.856	 63.078	 243.076	 144893.431	 163485.789	 72645.543	 50154.922	 165618.258	 5880
45.849999999999994	 382.275	 90.562	 348.447	 339.942	 478.228	 211.377	 151.062	 201.527	 66.094	 229.014	 174414.537	 205599.741	 62033.363	 37657.941	 298080.969	 5771
45.95	 376.333	 74.323	 356.547	 346.410	 447.311	 209.966	 155.631	 173.886	 73.019	 203.907	 163220.950	 201767.697	 57698.602	 44097.625	 265213.156	 5017
46.05	 390.298	 48.658	 369.332	 363.047	 442.000	 148.349	 106.977	 149.508	 72.396	 162.288	 113039.743	 104422.718	 51446.203	 40644.916	 168758.652	 4468
46.150000000000006	 375.537	 46.026	 370.409	 360.717	 375.402	 210.045	 155.990	 178.238	 160.785	 201.728	 90868.953	 105661.199	 36084.348	 31769.428	 124906.117	 3801
46.25	 374.427	 49.889	 374.867	 335.991	 397.525	 188.104	 107.329	 186.318	 155.991	 221.062	 127678.999	 66638.179	 118836.613	 78092.621	 158454.422	 4854
46.349999999999994	 368.992	 56.498	 373.507	 318.039	 421.729	 242.843	 192.374	 192.339	 139.149	 231.645	 143796.554	 85236.304	 111275.328	 91885.338	 155990.352	 7680
46.45	 345.239	 66.903	 326.142	 285.767	 402.322	 228.137	 211.640	 150.609	 107.571	 200.393	 186204.922	 107706.757	 148449.289	 106597.658	 241787.621	 7592
46.55	 349.371	 67.186	 319.907	 300.637	 424.388	 251.373	 237.284	 149.124	 86.105	 262.409	 198579.267	 143261.633	 131098.375	 109088.375	 249599.578	 6089
46.650000000000006	 371.751	 79.320	 334.337	 307.443	 444.155	 299.891	 234.537	 141.706	 77.992	 534.874	 232172.040	 135274.197	 210946.852	 110244.264	 311586.938	 5334
46.75	 352.960	 82.167	 318.760	 275.124	 437.663	 324.496	 216.721	 417.046	 78.692	 469.954	 203372.184	 118108.521	 155567.133	 116629.367	 261047.227	 6594
46.849999999999994	 338.357	 78.052	 315.883	 262.784	 421.756	 374.987	 234.617	 513.920	 84.156	 568.324	 204388.448	 167389.635	 111007.406	 77233.605	 323117.703	 6314
46.95	 340.362	 85.821	 311.110	 268.693	 433.238	 371.837	 232.249	 480.065	 82.282	 554.191	 186045.838	 154828.837	 104069.492	 74796.680	 291512.766	 6291
47.05	 327.990	 86.883	 291.162	 252.259	 416.636	 406.075	 257.247	 550.820	 79.955	 576.538	 191607.466	 169256.202	 109242.129	 74368.393	 285251.109	 5936
47.150000000000006	 327.815	 83.221	 327.840	 244.418	 417.660	 360.872	 252.411	 272.319	 80.770	 614.046	 194814.190	 181302.000	 106399.477	 66534.229	 299766.562	 6328
47.25	 326.157	 97.429	 286.266	 244.762	 437.971	 447.407	 279.991	 612.652	 79.260	 665.699	 202758.939	 191174.490	 114093.219	 67121.562	 329587.219	 5385
47.349999999999994	 333.403	 97.370	 293.923	 245.682	 444.265	 424.097	 295.146	 633.318	 65.233	 664.191	 163414.836	 113643.445	 131695.500	 69084.982	 242928.172	 6320
47.45	 325.965	 97.286	 291.346	 230.952	 443.402	 379.660	 252.718	 530.378	 69.467	 619.670	 151945.285	 114349.858	 129906.168	 55491.527	 209147.988	 6938
47.55	 320.837	 90.044	 290.160	 243.541	 436.398	 385.155	 227.414	 502.227	 99.725	 564.379	 163260.401	 152432.729	 117441.504	 55802.711	 174537.188	 7618
47.650000000000006	 318.141	 79.667	 282.544	 252.161	 433.599	 364.492	 220.079	 474.847	 71.692	 541.240	 124205.414	 73050.235	 110917.422	 59109.650	 154451.758	 8959
47.75	 315.121	 83.599	 279.521	 248.274	 436.744	 384.902	 253.168	 496.095	 68.871	 637.310	 123394.646	 65590.873	 118403.578	 65589.836	 151519.547	 9137
47.849999999999994	 281.545	 57.239	 267.427	 236.342	 291.357	 409.406	 229.204	 442.306	 170.112	 627.822	 120022.255	 77859.842	 111027.391	 67810.344	 135660.496	 8790
47.95	 285.696	 65.600	 267.775	 235.162	 287.875	 394.970	 251.525	 410.589	 161.474	 668.379	 112590.618	 54613.681	 115514.250	 65274.310	 139253.250	 8212
48.05	 326.073	 92.235	 296.114	 244.110	 451.807	 343.863	 263.932	 180.962	 70.496	 655.836	 139060.352	 73668.312	 129059.781	 70773.154	 193342.996	 7662
48.150000000000006	 314.998	 85.985	 284.039	 245.112	 312.421	 402.618	 252.757	 443.896	 148.606	 649.348	 140167.288	 91330.257	 126375.461	 67231.615	 168057.547	 8132
48.25	 328.610	 96.519	 293.164	 242.960	 446.914	 398.538	 250.642	 515.666	 69.179	 621.366	 131265.559	 82894.319	 122181.238	 60835.745	 180224.977	 7672
48.349999999999994	 308.624	 88.592	 277.561	 241.934	 304.479	 397.980	 227.649	 506.892	 164.047	 566.667	 132952.682	 86056.785	 89570.297	 59539.461	 165199.688	 9275
48.45	 314.460	 88.487	 280.384	 261.679	 299.405	 369.412	 226.434	 443.109	 148.475	 556.081	 128046.503	 79404.402	 111109.227	 67877.918	 152375.781	 10868
48.55	 318.079	 87.579	 277.218	 243.328	 449.580	 369.432	 228.399	 465.636	 73.347	 543.295	 126797.589	 64693.601	 114737.422	 68996.484	 172621.680	 9903
48.650000000000006	 336.039	 107.099	 281.691	 245.604	 470.985	 336.742	 204.479	 434.847	 73.440	 479.889	 152908.416	 128425.235	 70324.070	 57231.439	 229674.285	 8778
48.75	 319.603	 91.440	 278.235	 248.787	 312.286	 319.963	 190.666	 428.350	 160.812	 470.301	 149081.166	 125569.234	 94088.586	 55942.916	 218996.289	 9644
48.849999999999994	 317.631	 86.662	 282.614	 248.468	 324.532	 335.603	 198.969	 409.719	 161.779	 489.810	 162080.941	 147623.816	 85932.383	 52727.918	 227084.609	 10393
48.95	 304.099	 70.888	 282.378	 260.846	 300.438	 353.903	 192.848	 438.268	 170.249	 507.297	 169695.436	 157377.518	 80594.953	 54023.444	 244991.641	 10674
49.05	 289.523	 66.679	 266.486	 256.016	 275.040	 343.270	 176.381	 423.807	 169.114	 470.453	 152718.287	 173826.926	 84757.461	 57599.934	 134789.125	 9249
49.150000000000006	 309.485	 81.310	 271.627	 259.870	 303.615	 306.677	 162.018	 410.865	 161.078	 443.366	 190286.412	 231389.451	 89740.312	 60691.074	 132828.516	 9437
49.25	 327.955	 94.462	 276.926	 264.582	 318.543	 276.202	 156.100	 174.514	 146.160	 412.814	 215938.615	 236533.372	 100991.266	 65312.184	 170262.188	 9797
49.349999999999994	 312.486	 74.696	 278.663	 261.955	 322.961	 303.933	 189.010	 345.238	 146.257	 416.180	 199831.708	 199939.103	 104368.406	 73491.973	 213110.203	 10723
49.45	 326.975	 88.033	 289.000	 263.502	 313.413	 305.235	 181.134	 360.988	 142.630	 415.651	 194033.716	 181706.253	 109731.250	 82158.188	 189120.281	 11205
49.55	 328.992	 84.888	 290.071	 265.724	 421.670	 295.887	 173.108	 343.149	 133.597	 395.300	 202469.399	 180712.383	 112352.098	 82509.213	 362293.539	 10902
49.650000000000006	 334.716	 92.026	 292.195	 258.475	 457.677	 279.658	 151.800	 345.605	 132.397	 376.465	 210384.946	 173230.178	 127414.613	 81360.801	 375980.109	 9548
49.75	 324.389	 77.495	 282.431	 260.836	 419.378	 315.995	 155.733	 362.167	 137.937	 381.326	 195901.670	 158474.953	 106444.289	 82034.000	 344213.656	 8685
49.849999999999994	 317.110	 58.216	 297.116	 264.167	 375.108	 299.937	 158.587	 354.075	 149.576	 381.672	 190328.664	 147769.358	 114916.871	 88037.502	 322640.117	 10372
49.95	 312.747	 51.580	 297.311	 263.614	 358.248	 335.825	 173.898	 364.342	 147.056	 387.330	 175121.912	 126846.376	 101405.234	 88117.812	 292559.500	 9177
50.05	 304.668	 41.455	 295.027	 261.184	 337.594	 326.642	 174.226	 380.958	 161.306	 401.494	 173573.779	 116280.643	 109767.324	 88572.586	 279391.203	 9804
50.150000000000006	 303.970	 32.219	 314.348	 268.550	 327.564	 291.276	 164.698	 187.683	 169.433	 377.988	 167383.488	 102676.051	 131544.141	 88383.105	 193415.043	 9386
50.25	 289.326	 23.739	 281.292	 268.955	 311.656	 286.893	 147.140	 216.636	 172.942	 346.710	 127789.310	 43440.216	 125468.672	 91017.109	 153095.344	 9990
50.349999999999994	 295.060	 29.982	 291.968	 265.979	 314.594	 298.270	 150.311	 293.116	 172.518	 336.285	 138523.547	 69809.902	 123181.992	 85798.012	 165068.070	 11575
50.45	 295.918	 31.737	 284.790	 264.801	 320.456	 311.464	 150.397	 306.723	 179.992	 362.958	 143046.317	 83765.681	 105231.109	 88591.590	 154908.742	 9815
50.55	 304.678	 46.913	 297.322	 259.668	 355.289	 283.948	 118.936	 305.105	 175.513	 321.760	 164323.951	 97728.847	 115451.574	 94195.654	 252267.547	 8642
50.650000000000006	 291.326	 36.024	 270.590	 260.048	 326.306	 308.264	 132.316	 303.157	 198.705	 318.862	 156730.502	 91310.645	 106751.352	 91918.166	 247033.574	 6970
50.75	 290.720	 26.311	 297.448	 263.087	 309.014	 273.296	 74.397	 249.860	 225.016	 306.515	 125106.773	 76211.723	 93572.664	 69821.420	 159012.180	 8324
50.849999999999994	 292.592	 25.858	 293.297	 266.819	 309.023	 303.100	 152.680	 278.552	 206.566	 305.215	 127562.701	 68169.885	 98920.863	 86281.750	 129960.088	 10550
50.95	 285.880	 19.080	 282.622	 270.139	 296.941	 311.993	 149.924	 267.400	 226.774	 307.927	 114944.862	 67245.737	 94090.500	 66323.754	 132658.641	 11171
51.05	 289.647	 17.546	 286.373	 274.056	 304.672	 300.750	 180.265	 251.654	 202.205	 286.400	 114531.673	 66322.578	 99030.570	 65674.322	 127443.248	 10834
51.150000000000006	 286.061	 21.141	 281.105	 272.015	 290.986	 298.551	 181.657	 244.885	 192.690	 279.493	 110058.403	 60691.232	 95739.781	 61420.803	 138294.266	 11107
51.25	 272.563	 23.222	 274.481	 265.947	 283.727	 351.247	 174.607	 263.380	 235.533	 398.531	 110518.553	 57775.637	 107735.984	 65040.981	 152805.531	 11184
51.349999999999994	 267.378	 24.904	 271.933	 255.469	 287.122	 374.828	 169.873	 336.775	 244.970	 428.192	 113766.696	 55849.070	 108309.145	 73295.750	 135880.707	 10570
51.45	 274.802	 29.670	 273.560	 264.542	 293.150	 364.393	 150.723	 348.684	 247.424	 403.758	 117064.830	 64959.272	 109101.016	 70285.398	 129102.867	 11127
51.55	 277.901	 23.724	 274.381	 264.234	 296.741	 313.872	 103.840	 297.846	 238.373	 369.242	 121801.879	 65094.817	 113027.438	 67219.734	 147310.863	 10910
51.650000000000006	 277.459	 19.188	 272.286	 263.317	 289.952	 283.274	 136.382	 240.559	 186.226	 320.081	 121263.828	 65165.969	 107568.715	 73476.090	 137674.137	 11410
51.75	 276.962	 16.313	 271.860	 264.284	 289.373	 312.426	 155.746	 250.241	 212.247	 340.014	 111345.415	 65419.195	 98286.000	 65174.840	 120141.750	 11041
51.849999999999994	 277.139	 14.884	 270.416	 265.604	 289.021	 305.719	 136.858	 253.883	 216.925	 326.506	 112578.835	 61034.360	 109565.984	 57518.286	 136658.895	 11616
51.95	 275.545	 14.820	 270.526	 263.703	 284.380	 312.061	 170.620	 253.610	 198.432	 300.685	 105288.319	 48716.564	 110275.781	 55162.625	 133132.594	 11369
52.05	 274.906	 19.041	 270.314	 260.965	 283.383	 305.967	 169.475	 246.159	 210.663	 289.087	 104981.645	 42924.450	 104575.410	 65382.343	 128529.506	 11828
52.150000000000006	 268.180	 18.786	 265.793	 253.810	 278.346	 306.263	 174.891	 240.426	 211.146	 286.078	 103340.454	 41448.111	 102486.805	 68223.066	 120543.129	 11784
52.25	 274.404	 12.409	 270.957	 267.797	 279.571	 296.516	 185.732	 230.766	 203.277	 262.688	 106881.649	 45029.099	 103081.156	 64245.236	 128978.062	 11691
52.349999999999994	 277.467	 18.428	 275.794	 267.085	 285.398	 295.644	 178.276	 240.087	 203.250	 275.948	 106894.786	 39916.040	 110465.320	 65894.891	 130666.859	 11521
52.45	 274.737	 18.882	 276.080	 267.469	 289.754	 297.527	 153.853	 243.062	 203.423	 321.706	 102589.838	 38827.969	 113324.312	 59815.810	 131877.008	 11006
52.55	 278.432	 20.415	 279.078	 262.844	 294.103	 297.650	 148.774	 246.637	 207.856	 299.563	 104558.699	 41901.768	 117688.836	 58430.045	 136243.531	 11080
52.650000000000006	 265.041	 22.215	 271.643	 253.845	 282.447	 320.690	 153.955	 240.839	 208.449	 360.587	 107457.813	 38476.925	 118650.070	 70891.008	 136739.734	 11245
52.75	 263.926	 27.185	 268.550	 243.448	 287.007	 314.136	 126.710	 245.620	 210.273	 379.260	 110056.543	 47863.710	 122484.395	 58763.040	 151024.414	 10992
52.849999999999994	 265.663	 28.477	 267.060	 243.086	 289.467	 314.996	 134.677	 285.754	 197.799	 360.592	 113953.245	 49662.168	 117950.266	 69021.328	 156813.969	 11069
52.95	 272.101	 32.210	 273.428	 245.163	 306.461	 296.993	 145.384	 283.285	 174.801	 361.486	 105737.050	 41526.014	 111028.551	 73988.465	 135671.184	 11116
53.05	 269.935	 31.435	 268.843	 231.430	 304.928	 281.281	 143.686	 203.182	 173.228	 347.598	 118427.502	 50629.762	 116945.961	 59118.588	 161807.230	 10434
53.150000000000006	 273.222	 27.871	 277.188	 259.989	 295.936	 289.104	 142.453	 315.364	 176.086	 340.740	 114545.531	 52699.659	 109815.125	 66973.258	 161321.414	 12076
53.25	 264.008	 30.698	 261.172	 233.085	 289.856	 288.968	 136.060	 277.001	 184.382	 347.375	 111988.876	 46535.048	 104347.531	 67140.617	 154022.461	 10803
53.349999999999994	 270.677	 31.875	 274.307	 245.574	 296.097	 288.921	 141.655	 278.841	 175.659	 348.828	 111697.620	 47923.726	 110930.340	 69158.584	 151134.582	 11076
53.45	 278.464	 34.397	 285.011	 261.415	 301.978	 285.112	 133.663	 280.552	 146.825	 343.008	 99203.296	 45444.663	 86727.398	 66770.762	 129838.848	 11120
53.55	 278.526	 34.095	 296.729	 235.718	 302.892	 261.131	 118.828	 261.444	 140.775	 295.432	 106385.802	 42197.943	 94690.527	 72217.277	 135730.598	 10742
53.650000000000006	 276.115	 33.344	 286.442	 235.413	 298.192	 252.574	 106.056	 259.881	 136.275	 289.446	 109696.797	 47632.678	 94378.430	 68653.857	 142639.086	 10724
53.75	 269.297	 30.634	 271.033	 233.095	 289.706	 257.580	 115.638	 252.844	 143.794	 302.300	 110530.034	 45261.280	 98274.828	 73681.047	 132808.266	 10065
53.849999999999994	 264.737	 25.323	 267.322	 248.439	 283.322	 226.489	 76.685	 232.966	 153.052	 294.118	 107930.004	 43595.643	 104537.871	 68445.420	 138972.473	 6746
53.95	 271.669	 31.941	 284.035	 230.948	 296.273	 265.237	 126.962	 230.020	 158.249	 344.677	 101453.016	 46586.086	 86046.801	 65495.974	 142736.598	 4876
54.05	 273.068	 33.448	 283.182	 230.011	 300.757	 273.632	 131.957	 235.524	 153.474	 329.561	 94221.355	 36849.859	 84529.066	 65050.153	 125731.051	 4850
54.150000000000006	 276.543	 33.254	 286.085	 236.328	 303.954	 273.671	 142.861	 221.829	 135.887	 353.016	 100366.617	 38207.233	 87902.961	 73117.100	 131679.453	 4854
54.25	 273.403	 32.321	 278.119	 236.033	 299.012	 273.002	 129.468	 225.911	 153.389	 347.269	 104338.184	 43820.971	 85256.375	 73016.805	 145438.844	 4899
54.349999999999994	 284.280	 39.499	 301.850	 236.445	 318.575	 264.142	 136.040	 219.449	 135.017	 346.573	 98120.835	 38381.935	 81757.191	 69739.094	 133041.465	 4570
54.45	 278.959	 32.843	 277.362	 250.038	 313.676	 259.679	 130.515	 212.125	 158.076	 309.933	 100062.330	 38029.472	 80706.633	 73862.299	 132021.742	 4750
54.55	 276.908	 31.177	 279.600	 243.709	 305.737	 257.857	 120.778	 209.017	 164.048	 300.323	 100846.977	 39766.478	 84087.477	 71501.697	 137231.719	 4926
54.650000000000006	 278.866	 30.903	 282.446	 246.510	 310.713	 304.896	 116.611	 279.073	 202.688	 340.546	 76872.884	 13953.520	 79706.922	 72036.867	 84501.641	 3479
54.75	 279.639	 30.686	 277.490	 251.495	 307.349	 307.290	 119.732	 268.862	 206.424	 340.966	 78380.968	 16387.252	 83299.938	 74540.508	 87548.094	 3485
54.849999999999994	 276.145	 29.322	 283.640	 243.780	 304.732	 306.362	 125.246	 269.801	 207.033	 325.313	 81843.103	 12654.449	 81086.012	 73951.781	 88301.412	 3344
54.95	 271.215	 25.366	 279.517	 246.701	 295.413	 306.846	 124.151	 259.290	 207.159	 466.029	 85211.049	 9479.259	 84850.449	 79842.879	 90087.287	 2856
55.05	 274.180	 25.808	 270.906	 248.741	 298.675	 303.718	 138.404	 237.903	 194.665	 517.253	 84695.221	 9792.830	 85598.594	 77260.973	 91268.262	 2847
55.150000000000006	 279.655	 15.507	 281.544	 267.665	 291.282	 300.412	 146.788	 264.600	 179.534	 506.115	 86778.528	 8973.941	 86902.980	 80362.270	 92247.195	 2848
55.25	 260.778	 26.093	 252.544	 234.194	 284.753	 315.958	 125.121	 245.016	 229.333	 315.537	 86079.328	 13755.786	 87209.820	 78524.035	 94081.535	 2727
55.349999999999994	 271.213	 18.062	 271.853	 261.392	 286.326	 299.815	 148.784	 243.095	 180.713	 524.218	 85175.198	 15419.431	 86119.047	 73380.039	 95601.750	 2923
55.45	 279.969	 15.189	 277.044	 271.301	 288.278	 282.909	 147.998	 232.934	 157.396	 326.693	 83899.641	 17797.729	 82457.336	 68764.195	 97500.375	 3237
55.55	 280.186	 18.577	 276.137	 265.650	 300.656	 335.680	 120.392	 310.440	 261.512	 468.324	 89741.125	 20102.900	 87063.984	 72779.961	 106188.016	 2549
55.650000000000006	 282.180	 14.671	 279.508	 271.786	 286.758	 392.769	 129.149	 324.656	 280.739	 533.090	 99263.469	 17597.451	 98276.812	 87391.766	 112855.812	 1709
55.75	 276.509	 7.220	 275.059	 271.241	 282.485	 407.939	 124.104	 479.723	 278.994	 533.909	 103115.099	 14533.326	 105380.520	 89713.447	 113500.119	 1416
55.849999999999994	 286.984	 15.755	 281.792	 274.034	 292.338	 402.140	 121.445	 481.928	 276.070	 519.400	 82725.340	 14550.552	 83166.617	 74800.131	 89446.840	 1430
55.95	 286.551	 16.731	 274.706	 270.823	 302.216	 403.698	 96.440	 476.066	 305.692	 495.398	 62744.346	 21945.377	 76987.652	 38611.621	 82084.709	 1440
56.05	 278.015	 10.779	 277.226	 276.106	 280.116	 426.519	 101.526	 508.401	 312.753	 518.594	 83271.438	 16645.421	 85231.969	 81272.859	 89136.641	 1395
56.150000000000006	 285.091	 14.648	 280.101	 276.069	 290.015	 449.223	 108.789	 510.884	 320.692	 537.811	 83166.788	 15746.880	 87766.750	 74871.594	 92823.828	 1201
56.25	 290.922	 11.206	 296.451	 281.693	 299.477	 405.837	 118.790	 494.138	 287.785	 522.390	 62236.025	 15446.498	 66314.672	 48191.617	 70546.000	 1501
56.349999999999994	 294.586	 6.475	 294.462	 290.390	 298.594	 402.955	 119.289	 492.369	 279.730	 518.633	 55379.412	 11021.525	 60126.707	 44199.387	 64967.514	 1447
56.45	 290.727	 7.784	 293.164	 285.561	 295.445	 405.779	 106.760	 490.440	 296.310	 509.926	 54789.303	 12894.232	 62588.949	 42759.523	 66679.785	 1451
56.55	 290.375	 15.128	 296.929	 283.980	 298.668	 407.608	 109.528	 498.178	 297.322	 512.623	 53682.559	 9822.865	 58237.566	 44232.154	 62138.531	 1444
56.650000000000006	 285.561	 12.946	 293.695	 274.750	 296.821	 415.174	 104.750	 495.935	 306.715	 517.175	 52277.027	 10940.655	 56592.691	 41170.359	 62838.891	 1453
56.75	 285.309	 17.693	 295.324	 273.512	 296.762	 443.410	 107.150	 505.335	 293.553	 517.722	 65988.765	 7893.394	 65558.348	 62870.216	 70754.088	 1066
56.849999999999994	 297.519	 4.118	 299.048	 293.030	 301.179	 508.692	 6.316	 508.415	 504.145	 512.902	 69562.946	 3121.793	 69081.238	 67175.359	 71460.268	 756
56.95	 303.664	 1.363	 303.645	 302.588	 304.843	 498.440	 6.544	 497.570	 493.607	 502.858	 65563.122	 2916.084	 65052.844	 63421.820	 67428.840	 755
57.05	 302.421	 2.174	 302.031	 301.109	 304.337	 496.274	 5.109	 496.101	 492.881	 499.728	 66249.639	 1824.200	 66265.418	 65018.723	 67354.311	 758
57.150000000000006	 293.073	 4.143	 294.079	 291.164	 295.695	 472.879	 37.091	 491.528	 441.504	 504.722	 63460.537	 4401.712	 64218.969	 60261.602	 66579.062	 757
57.25	 287.828	 2.944	 287.768	 285.678	 289.747	 451.757	 9.759	 453.041	 446.937	 458.212	 55843.311	 2686.042	 56074.797	 54527.277	 57572.598	 757
57.349999999999994	 293.037	 9.114	 295.254	 283.032	 301.152	 470.369	 12.122	 468.139	 461.156	 476.981	 70180.628	 10303.431	 72499.273	 59173.938	 78640.891	 759
57.45	 300.180	 7.432	 302.496	 301.138	 304.775	 451.424	 20.291	 458.743	 454.074	 462.034	 72136.579	 4584.283	 72039.133	 70058.172	 74518.434	 759
57.55	 276.770	 7.910	 273.704	 270.931	 279.847	 384.256	 33.515	 370.545	 359.832	 401.709	 63576.447	 9659.889	 61102.207	 56479.906	 70537.125	 760
57.650000000000006	 276.086	 2.358	 275.708	 274.224	 278.303	 370.227	 9.570	 370.350	 363.798	 377.762	 51210.393	 5483.344	 50212.148	 48062.464	 53002.991	 760
57.75	 277.747	 1.255	 277.565	 276.835	 278.447	 382.101	 6.029	 381.467	 377.924	 385.501	 49355.723	 2713.424	 49178.576	 47541.122	 51022.317	 762
57.849999999999994	 279.339	 1.290	 279.372	 278.554	 280.074	 380.829	 5.508	 380.287	 377.299	 383.676	 47460.043	 2557.314	 47355.031	 45985.043	 48851.055	 761
57.95	 280.165	 1.002	 280.196	 279.528	 280.753	 380.321	 4.416	 380.488	 377.810	 383.246	 47307.904	 2325.843	 47228.859	 45953.652	 48514.193	 511
